"NAME:","walk_1_1.csv","",""
"EXPERIMENT TIME:","08/06/2023 12:25","",""
"ACTIVITY TYPE:","Walking","",""
"COUNT OF ACTUAL STEPS: ","108","",""
"","","",""
"Time [sec]","ACC X","ACC Y","ACC Z"
"0.0","10.12","10.75","2.59"
"0.07098389","6.59","4.51","-1.14"
"0.14199829","6.94","5.33","3.80"
"0.21298218","5.73","5.73","-0.31"
"0.28399658","4.98","5.65","2.12"
"0.35498047","5.02","6.24","1.84"
"0.42599487","4.35","6.28","2.08"
"0.49697876","6.00","6.79","2.98"
"0.56799316","6.83","6.75","2.51"
"0.63897705","6.98","7.65","4.67"
"0.70999146","10.32","3.14","6.00"
"0.78097534","7.49","7.45","3.30"
"0.85198975","6.12","6.08","1.65"
"0.92297363","5.22","5.18","-0.31"
"0.99398804","4.82","5.10","-0.86"
"1.0650024","5.10","6.12","0.08"
"1.1359863","8.90","7.26","0.00"
"1.2070007","11.06","6.47","3.69"
"1.2779846","3.37","5.22","0.08"
"1.348999","10.32","6.00","0.43"
"1.4199829","4.59","5.73","2.63"
"1.4909973","4.35","4.94","1.77"
"1.5619812","4.35","5.96","1.61"
"2.4140015","2.90","3.65","3.73"
"2.4849854","10.63","5.69","0.04"
"2.5559998","4.16","4.43","1.18"
"2.6269836","4.67","5.06","1.96"
"2.697998","4.63","5.88","1.45"
"2.768982","6.43","6.63","2.82"
"2.8399963","5.77","8.90","2.12"
"2.9109802","4.00","8.90","7.41"
"2.9819946","9.69","1.96","1.41"
"3.0529785","6.47","8.59","4.12"
"3.123993","4.20","5.22","0.47"
"3.1949768","4.51","5.22","-0.47"
"3.2659912","4.35","4.79","-1.65"
"3.336975","4.94","6.12","2.59"
"3.4079895","7.96","11.81","4.71"
"3.479004","5.65","2.94","0.08"
"3.5499878","8.83","5.96","2.43"
"3.6210022","4.82","5.53","1.53"
"3.691986","4.94","5.06","1.73"
"3.7630005","3.69","5.02","0.75"
"3.8339844","6.59","6.32","2.75"
"3.9049988","4.94","8.28","2.55"
"3.9759827","7.53","8.55","6.71"
"4.046997","10.59","2.08","3.10"
"4.117981","6.59","7.88","4.08"
"4.1889954","5.37","5.41","0.94"
"4.2599792","5.57","3.84","-0.59"
"4.3309937","3.88","4.94","-1.14"
"4.4019775","6.47","6.79","0.04"
"4.472992","8.24","12.16","-2.20"
"4.543976","12.55","2.79","0.55"
"4.61499","6.98","7.30","4.79"
"4.685974","7.02","5.02","0.59"
"4.7569885","5.96","4.75","2.63"
"4.828003","3.02","6.16","1.06"
"4.898987","4.86","6.32","1.80"
"4.970001","6.43","6.67","2.59"
"5.040985","7.69","8.79","3.77"
"5.1119995","10.12","2.67","6.12"
"5.1829834","8.90","8.16","3.53"
"5.253998","5.65","5.92","2.20"
"5.3249817","4.59","4.12","-1.84"
"5.395996","4.08","3.80","-1.61"
"5.46698","7.73","5.84","2.82"
"5.5379944","6.59","13.96","-2.04"
"5.6089783","20.01","7.61","8.83"
"5.6799927","4.16","6.04","1.84"
"5.7509766","11.34","6.75","2.63"
"5.821991","4.28","2.63","0.67"
"5.892975","2.43","5.10","1.18"
"5.9639893","5.10","5.96","2.31"
"6.0350037","6.51","5.96","3.26"
"6.1059875","6.12","9.22","3.53"
"6.177002","11.57","2.16","8.00"
"6.247986","9.89","6.71","3.18"
"6.3190002","4.43","6.28","3.18"
"6.389984","5.02","4.55","-4.51"
"6.4609985","4.12","3.84","-1.33"
"6.5319824","8.20","5.92","1.84"
"6.602997","7.53","13.02","-1.45"
"6.6739807","16.95","2.71","3.26"
"6.744995","8.36","6.94","3.80"
"6.815979","7.10","6.32","2.39"
"6.8869934","5.77","4.55","1.33"
"6.9579773","2.28","5.65","1.37"
"7.0289917","5.45","6.16","1.96"
"7.0999756","6.00","6.90","3.18"
"7.17099","7.26","7.92","3.73"
"7.241974","10.98","2.55","5.14"
"7.3129883","7.69","8.39","4.47"
"7.3840027","5.57","5.96","1.49"
"7.4549866","5.57","3.41","0.08"
"7.526001","3.65","4.90","-1.61"
"7.596985","5.92","6.51","0.98"
"7.6679993","8.63","13.18","-2.59"
"8.377991","10.28","6.24","2.79"
"8.448975","4.16","6.51","1.80"
"8.519989","4.39","3.65","-1.53"
"8.591003","4.31","4.59","-1.45"
"8.661987","6.63","8.12","-0.63"
"8.733002","10.71","12.75","-1.69"
"8.803986","15.22","6.98","2.47"
"8.875","5.22","6.71","3.69"
"8.945984","8.79","5.18","0.98"
"9.016998","5.33","3.69","2.35"
"9.087982","3.96","5.30","1.88"
"9.158997","4.24","6.63","1.96"
"9.22998","5.73","6.90","2.90"
"9.300995","6.04","8.83","3.33"
"9.371979","8.67","3.37","7.37"
"9.442993","10.47","6.51","2.43"
"9.513977","4.94","6.39","2.90"
"9.584991","4.39","4.16","-1.10"
"9.655975","3.61","4.47","-1.26"
"9.72699","7.18","7.41","-0.90"
"9.797974","10.16","13.22","-3.22"
"9.868988","20.01","11.41","6.79"
"9.940002","6.12","6.08","3.02"
"10.010986","10.04","5.57","2.47"
"10.082001","3.65","3.14","1.18"
"10.152985","3.02","5.14","1.57"
"10.223999","4.98","6.00","2.55"
"10.294983","5.96","7.22","3.49"
"10.365997","7.41","9.49","3.61"
"10.436981","11.06","2.39","6.51"
"10.507996","10.12","7.02","3.45"
"10.5789795","4.67","5.96","2.31"
"10.649994","5.02","3.02","-0.39"
"10.720978","4.12","4.28","-1.57"
"10.791992","6.47","7.77","-0.43"
"10.862976","10.90","13.73","-2.98"
"10.9339905","19.93","11.77","3.41"
"11.004974","6.24","7.02","4.43"
"11.075989","8.08","4.79","0.63"
"11.147003","5.69","3.41","2.08"
"11.217987","3.84","4.86","1.57"
"11.289001","4.00","6.55","1.53"
"11.359985","6.32","6.94","3.65"
"11.431","7.18","9.89","2.24"
"11.501984","9.73","3.33","7.18"
"11.572998","11.14","5.57","3.30"
"11.643982","4.39","6.43","2.59"
"11.714996","4.82","3.88","-1.88"
"11.78598","4.35","4.16","-1.65"
"11.856995","6.43","7.73","-0.67"
"11.9279785","9.81","12.98","-2.59"
"11.998993","17.34","5.53","-0.90"
"12.069977","5.22","6.94","4.79"
"12.140991","7.69","5.02","0.67"
"12.211975","5.33","4.59","1.49"
"12.2829895","3.65","5.02","2.12"
"12.354004","4.28","5.33","1.18"
"12.424988","5.96","7.41","4.08"
"12.496002","7.26","9.26","2.39"
"12.566986","8.47","3.37","8.43"
"12.6380005","10.47","5.65","3.10"
"12.708984","3.96","6.43","2.79"
"12.779999","5.30","2.86","-2.00"
"12.850983","4.35","4.43","-0.86"
"12.921997","5.53","7.61","-0.98"
"12.992981","11.06","11.06","-0.94"
"13.063995","17.46","8.90","0.94"
"13.134979","5.53","7.06","5.06"
"13.205994","9.45","5.26","1.26"
"13.276978","5.53","4.55","2.67"
"13.347992","3.14","5.92","0.47"
"13.418976","4.75","6.32","1.88"
"13.48999","6.51","7.22","2.71"
"13.560974","7.06","9.02","3.37"
"14.34198","6.00","4.94","2.55"
"14.412994","3.14","5.49","1.06"
"14.483978","5.30","5.84","2.16"
"14.554993","6.71","7.34","3.80"
"14.625977","7.53","8.36","3.10"
"14.696991","9.53","2.71","5.02"
"14.767975","8.16","7.73","3.18"
"14.838989","5.41","6.08","1.96"
"14.910004","4.16","4.71","-1.77"
"14.980988","4.08","3.96","-1.77"
"15.052002","8.00","6.98","-0.51"
"15.122986","4.20","12.32","-1.61"
"15.194","9.85","3.26","-2.16"
"15.264984","8.75","6.28","2.31"
"15.335999","4.82","5.30","1.57"
"15.406982","6.16","5.14","2.16"
"15.477997","3.33","5.73","1.57"
"15.548981","6.43","6.86","1.92"
"15.619995","6.35","7.57","2.82"
"15.690979","8.67","7.96","5.45"
"15.761993","10.16","2.00","2.67"
"15.832977","6.00","8.75","4.08"
"15.903992","6.12","4.71","1.18"
"15.974976","5.06","5.06","-1.14"
"16.04599","4.12","5.10","-1.22"
"16.116974","6.75","7.88","-0.39"
"16.187988","7.53","12.79","-2.47"
"16.259003","19.97","4.63","3.61"
"16.329987","7.14","5.88","2.24"
"16.401001","7.96","6.75","3.18"
"16.471985","5.41","4.16","1.37"
"16.543","2.75","4.67","0.75"
"16.613983","6.00","7.14","1.80"
"16.684998","5.53","7.69","2.55"
"16.755981","8.79","8.16","6.79"
"16.826996","9.41","1.65","3.41"
"16.89798","5.37","9.57","4.28"
"16.968994","5.14","5.02","1.73"
"17.039978","4.55","3.88","-1.37"
"17.110992","3.06","5.45","-1.57"
"17.181976","6.71","4.43","2.51"
"17.25299","0.35","8.94","-2.16"
"17.323975","10.20","2.67","-2.90"
"17.394989","7.96","5.06","1.69"
"17.466003","5.41","6.51","2.31"
"17.536987","6.20","4.16","2.00"
"17.608002","2.35","5.45","1.29"
"17.678986","7.30","7.02","2.67"
"17.75","5.26","8.63","1.73"
"17.820984","7.37","7.34","8.36"
"17.891998","14.36","3.73","2.47"
"17.962982","5.41","8.43","5.14"
"18.033997","5.53","3.69","0.71"
"18.10498","4.16","4.24","-0.43"
"18.175995","3.73","4.94","-1.26"
"18.246979","6.83","5.73","3.92"
"18.317993","2.86","5.14","3.53"
"18.388977","3.88","4.90","3.49"
"18.459991","9.69","5.37","3.22"
"18.530975","1.53","3.69","1.26"
"18.60199","4.24","3.49","1.06"
"18.672974","3.37","5.96","3.02"
"18.743988","6.83","7.26","4.12"
"18.815002","6.08","10.36","1.88"
"18.885986","10.47","1.73","7.06"
"18.957","9.96","5.53","2.98"
"19.027985","4.08","7.26","2.67"
"19.098999","4.39","3.14","0.08"
"19.169983","3.22","4.16","-1.88"
"19.240997","6.94","7.37","1.14"
"19.311981","9.06","13.93","-2.39"
"19.382996","10.00","-0.16","-0.63"
"19.45398","9.34","6.86","0.63"
"19.524994","8.47","7.06","4.35"
"19.595978","4.98","3.49","1.18"
"20.85498","4.43","8.94","2.20"
"20.925995","5.96","8.87","7.61"
"21.849976","7.26","6.90","2.98"
"21.92099","7.34","9.69","2.67"
"21.991974","7.96","8.20","7.81"
"22.843994","4.20","5.92","1.49"
"22.914978","5.84","6.59","3.92"
"22.985992","7.37","8.43","2.63"
"23.056976","13.26","3.18","4.04"
"23.12799","6.08","8.55","4.12"
"23.198975","7.02","6.28","0.31"
"23.269989","4.47","4.31","-0.86"
"23.341003","3.57","5.69","-1.73"
"23.411987","4.71","4.28","2.75"
"23.483002","5.06","9.18","-0.16"
"23.553986","6.00","6.59","1.96"
"23.625","9.85","4.08","0.31"
"23.695984","4.98","6.94","2.75"
"23.766998","5.61","4.51","1.73"
"23.837982","4.71","6.32","1.96"
"23.908997","4.39","5.88","2.55"
"23.97998","7.26","6.90","3.57"
"24.050995","6.47","9.26","3.57"
"24.121979","4.55","5.49","4.16"
"24.192993","12.59","4.24","0.90"
"24.263977","5.02","7.49","4.20"
"24.334991","7.37","3.69","-1.18"
"24.405975","3.96","5.10","0.04"
"24.47699","5.02","5.02","-0.67"
"24.547974","6.90","8.51","-3.06"
"24.618988","7.65","9.77","1.37"
"24.690002","5.96","3.69","-0.98"
"24.760986","10.20","4.94","0.27"
"24.832","3.41","6.08","3.06"
"24.902985","5.41","4.90","1.92"
"24.973999","3.92","4.63","0.75"
"25.044983","5.96","6.35","2.43"
"25.115997","6.94","7.34","2.75"
"25.186981","6.63","8.94","4.31"
"25.257996","9.96","3.84","5.84"
"25.32898","7.10","8.43","4.04"
"25.399994","6.35","5.37","0.90"
"25.470978","4.24","3.18","0.12"
"25.541992","4.67","5.22","-0.78"
"25.612976","6.98","6.28","-1.06"
"25.68399","8.04","11.53","-2.63"
"25.754974","15.02","7.61","3.73"
"25.825989","5.53","5.77","4.00"
"25.897003","8.71","5.88","0.43"
"25.967987","4.55","4.82","1.80"
"26.039001","4.47","5.92","2.12"
"26.109985","5.10","6.79","2.31"
"26.181","6.12","7.85","3.77"
"26.251984","5.41","9.38","3.26"
"26.322998","7.85","4.94","6.08"
"26.393982","9.81","5.53","3.06"
"26.464996","4.82","6.16","2.35"
"26.53598","5.22","3.14","-0.78"
"26.606995","4.82","4.67","-1.45"
"26.677979","5.69","6.94","-0.20"
"26.748993","7.26","9.26","0.31"
"26.819977","9.10","7.96","4.63"
"26.890991","4.71","6.28","1.84"
"26.961975","8.55","4.39","0.90"
"27.03299","3.65","4.94","1.88"
"27.104004","5.02","4.86","2.28"
"27.174988","3.88","5.81","1.33"
"27.246002","5.65","7.73","3.06"
"27.316986","7.30","8.90","2.79"
"27.388","6.24","7.41","7.30"
"27.458984","11.18","4.67","3.02"
"27.529999","4.82","6.35","3.18"
"27.600983","5.22","3.53","-0.75"
"27.671997","4.59","4.51","-0.75"
"27.742981","4.35","6.59","-0.86"
"27.813995","7.61","6.55","2.16"
"27.88498","12.43","6.04","5.96"
"27.955994","2.12","6.51","5.41"
"28.026978","9.69","5.41","-0.39"
"28.097992","4.35","4.35","1.96"
"28.807983","5.57","7.73","0.27"
"28.878998","10.20","11.92","-1.37"
"28.949982","14.40","9.10","2.00"
"29.872986","7.14","7.10","0.78"
"29.944","9.77","12.59","-2.31"
"30.937988","7.14","8.71","-0.94"
"31.293","4.75","4.24","2.00"
"31.363983","3.92","5.02","1.45"
"31.434998","4.43","6.00","1.88"
"31.505981","7.61","7.10","4.24"
"31.576996","6.20","10.12","2.59"
"31.64798","8.59","4.39","6.43"
"31.718994","10.79","6.94","3.77"
"31.789978","5.22","5.53","3.26"
"31.860992","5.33","2.63","-0.67"
"31.931976","3.73","4.51","-0.59"
"32.00299","5.10","8.12","-0.71"
"32.073975","9.85","8.63","-1.10"
"32.14499","13.10","7.14","7.41"
"32.216003","4.35","2.90","2.35"
"32.286987","8.83","5.81","0.08"
"32.358","4.82","4.24","1.18"
"32.428986","4.08","5.73","1.80"
"32.5","3.88","5.45","2.04"
"32.570984","7.53","7.18","4.04"
"32.642","7.22","10.36","3.22"
"32.712982","6.59","5.10","6.83"
"32.783997","10.40","4.86","3.30"
"32.85498","4.31","6.16","3.61"
"32.925995","4.63","3.57","-0.51"
"32.99698","4.04","4.63","-1.33"
"33.067993","6.08","8.24","-0.63"
"33.138977","9.89","11.53","-1.22"
"33.20999","17.46","10.32","4.55"
"33.280975","5.33","5.22","4.35"
"33.35199","8.87","6.08","1.41"
"33.422974","5.57","3.96","1.88"
"33.493988","3.88","5.41","1.22"
"33.565002","4.35","6.86","1.96"
"33.635986","5.88","7.57","2.75"
"33.707","5.18","9.02","3.96"
"33.777985","9.77","2.90","6.47"
"33.849","9.06","6.63","3.84"
"33.919983","4.82","6.90","3.22"
"33.990997","5.53","3.65","-0.82"
"34.06198","3.96","5.26","-0.59"
"34.132996","5.45","6.35","-0.86"
"34.20398","10.04","10.43","-1.22"
"34.274994","16.48","9.92","5.22"
"34.345978","3.84","5.26","5.49"
"34.416992","8.47","4.63","-0.51"
"34.487976","5.02","4.31","1.92"
"34.55899","4.08","5.37","2.00"
"34.629974","4.55","6.12","1.84"
"34.70099","7.41","7.41","3.57"
"34.772003","5.77","9.57","3.14"
"34.842987","6.98","3.92","6.24"
"34.914","11.34","5.96","4.00"
"34.984985","4.94","6.86","2.82"
"35.056","4.82","2.55","-0.59"
"35.126984","4.82","4.86","-1.06"
"35.197998","7.22","6.86","-0.47"
"35.268982","8.32","10.08","-0.24"
"35.339996","13.02","6.35","4.20"
"35.41098","5.30","3.77","-0.04"
"35.481995","10.43","5.22","0.98"
"35.55298","3.84","4.24","1.53"
"35.623993","5.02","5.30","2.24"
"35.694977","3.49","5.73","1.69"
"35.76599","6.24","7.69","3.84"
"35.836975","6.12","9.53","2.82"
"35.90799","7.02","6.12","6.43"
"35.979004","12.12","4.75","3.10"
"36.049988","4.43","6.43","3.37"
"36.121002","5.49","3.84","0.55"
"36.191986","4.28","4.39","-0.55"
"36.263","4.90","7.18","-0.12"
"36.333984","8.51","7.61","0.94"
"36.405","7.92","7.92","4.16"
"36.475983","5.81","5.53","-3.22"
"36.546997","9.92","4.12","1.29"
"37.328003","4.35","5.88","-0.43"
"37.398987","8.08","9.45","1.06"
"38.32199","4.16","4.47","-1.14"
"38.392975","4.04","5.73","-0.20"
"39.244995","7.06","6.59","3.73"
"39.31598","5.10","4.94","0.59"
"39.386993","4.28","4.24","-0.12"
"39.81299","3.65","4.98","1.96"
"39.884003","5.69","3.80","2.59"
"39.954987","3.33","5.81","1.53"
"40.026","6.86","7.26","3.26"
"40.096985","6.28","9.49","3.49"
"40.168","8.36","7.57","7.49"
"40.238983","8.98","4.20","2.43"
"40.309998","6.59","5.92","3.53"
"40.38098","5.77","4.39","-0.04"
"40.451996","4.35","4.39","-0.59"
"40.52298","4.00","5.65","-0.86"
"40.593994","6.71","8.16","0.63"
"40.664978","3.96","11.89","-3.26"
"40.735992","8.71","-0.04","-2.16"
"40.806976","6.71","6.24","1.77"
"40.87799","4.43","5.18","1.37"
"40.948975","5.69","4.04","2.59"
"41.01999","3.33","5.33","1.80"
"41.091003","7.41","7.02","3.26"
"41.161987","6.16","9.41","4.16"
"41.233","7.57","7.53","7.10"
"41.303986","9.06","4.98","3.26"
"41.375","5.84","6.32","2.90"
"41.445984","4.86","4.16","1.02"
"41.517","4.12","4.75","-0.94"
"41.587982","4.59","6.75","-0.43"
"41.658997","6.94","8.79","1.22"
"41.72998","9.81","9.92","5.53"
"41.800995","3.61","7.10","1.37"
"41.87198","9.18","4.59","-0.16"
"41.942993","3.53","5.18","1.96"
"42.013977","4.90","5.06","2.79"
"42.08499","3.69","5.41","0.90"
"42.155975","7.73","7.49","3.41"
"42.22699","5.73","9.77","3.49"
"42.297974","8.36","7.10","7.61"
"42.368988","9.18","2.67","3.73"
"42.440002","7.41","6.67","3.53"
"42.510986","5.88","5.06","1.69"
"42.582","4.47","4.71","-1.14"
"42.652985","4.31","4.51","-1.14"
"42.724","7.85","8.12","-0.82"
"42.794983","5.81","12.12","-1.33"
"42.865997","7.81","0.82","-2.24"
"42.93698","8.36","5.41","2.63"
"43.007996","4.59","5.18","1.37"
"43.07898","4.63","4.39","2.51"
"43.149994","4.24","5.22","1.18"
"43.220978","6.71","6.98","2.55"
"43.291992","5.37","9.61","3.30"
"43.362976","8.59","7.53","6.83"
"43.43399","7.69","3.14","4.47"
"43.504974","6.63","5.65","3.61"
"43.57599","5.65","4.08","0.86"
"43.647003","4.59","4.00","-2.16"
"43.717987","4.98","5.81","-0.16"
"43.789","7.30","10.16","-0.82"
"43.859985","4.20","10.12","-2.51"
"43.931","4.94","2.08","-3.80"
"44.001984","7.77","5.84","0.75"
"44.072998","5.10","6.08","2.31"
"44.143982","5.30","4.94","2.24"
"44.214996","4.39","5.02","1.06"
"44.28598","5.22","5.73","1.80"
"44.356995","4.79","8.59","3.41"
"44.42798","6.94","9.06","3.49"
"44.498993","7.77","5.30","7.37"
"44.569977","9.65","6.83","4.31"
"44.64099","5.14","5.33","2.59"
"44.711975","5.45","3.80","-2.31"
"44.78299","3.77","4.20","-1.45"
"44.854004","7.06","7.65","-0.31"
"44.924988","8.87","11.18","-2.67"
"44.996002","16.40","9.96","4.20"
"45.066986","5.18","6.00","3.10"
"45.776978","3.96","4.47","-1.02"
"45.847992","4.67","5.18","-1.61"
"45.918976","8.36","8.20","-0.04"
"45.98999","6.20","11.02","-2.43"
"46.060974","13.49","8.98","1.53"
"46.13199","9.61","3.57","1.26"
"46.203003","4.90","7.41","2.28"
"46.273987","6.39","4.75","2.08"
"46.345","4.16","4.98","2.00"
"46.415985","4.51","7.06","1.45"
"46.487","6.98","7.85","4.08"
"46.557983","5.92","9.57","4.08"
"46.628998","8.36","4.43","6.24"
"46.69998","8.51","6.24","4.16"
"46.770996","5.41","5.81","2.47"
"46.84198","5.77","3.30","-1.88"
"46.912994","4.35","4.24","-0.82"
"46.98398","8.47","7.34","-0.71"
"47.054993","6.16","11.30","-2.04"
"47.125977","14.20","10.12","0.90"
"47.19699","6.28","5.65","3.65"
"47.267975","7.88","6.83","1.10"
"47.33899","5.02","5.06","1.80"
"47.410004","3.61","4.63","2.00"
"47.480988","4.31","5.22","2.55"
"47.552002","7.02","6.32","2.24"
"47.622986","6.63","9.38","3.69"
"47.694","6.63","7.53","6.98"
"47.764984","8.63","4.08","4.35"
"47.836","7.65","6.86","3.88"
"47.906982","4.59","5.49","1.84"
"47.977997","5.10","3.49","-1.22"
"48.04898","5.02","4.86","-1.06"
"48.119995","7.37","7.02","-0.16"
"48.19098","6.47","10.83","-0.86"
"48.261993","12.47","9.69","2.59"
"48.332977","8.94","5.57","3.53"
"48.40399","6.75","6.12","0.47"
"48.474976","5.10","4.82","2.31"
"48.54599","3.26","5.14","1.73"
"48.616974","4.31","6.12","2.16"
"48.68799","6.71","7.14","2.20"
"48.759003","6.35","9.18","4.12"
"48.829987","7.69","7.77","5.33"
"48.901","8.36","4.55","2.86"
"48.971985","6.47","5.73","3.41"
"49.043","5.06","4.75","0.12"
"49.113983","4.43","4.51","-1.10"
"49.184998","4.86","5.22","-0.31"
"49.25598","6.90","8.79","-0.39"
"49.326996","6.75","10.40","-2.63"
"49.39798","9.14","5.77","-1.69"
"49.468994","8.24","5.49","-2.24"
"49.539978","6.28","6.08","1.49"
"49.610992","5.49","5.18","2.39"
"49.681976","3.53","4.98","1.73"
"49.75299","3.96","5.84","2.16"
"49.823975","6.39","8.12","2.47"
"49.89499","6.59","9.02","3.65"
"49.966003","6.75","6.90","6.90"
"50.036987","8.24","5.10","3.57"
"50.108","5.69","6.28","3.37"
"50.178986","5.26","4.67","1.92"
"50.25","4.90","4.71","-1.53"
"50.320984","4.90","5.57","-0.16"
"50.392","7.34","9.65","-0.71"
"50.462982","14.16","8.00","4.43"
"50.533997","7.49","1.88","-3.49"
"50.60498","6.43","5.65","2.55"
"50.675995","6.90","4.47","-0.86"
"50.74698","4.00","5.26","2.28"
"50.817993","5.41","5.26","1.53"
"50.888977","4.24","6.35","2.16"
"50.95999","7.10","7.92","3.57"
"51.030975","6.39","9.96","4.35"
"51.740997","10.20","4.71","0.71"
"51.81198","3.02","6.35","1.65"
"51.882996","6.28","4.31","1.69"
"51.95398","3.92","4.82","1.84"
"52.024994","6.55","7.10","2.12"
"52.095978","5.73","9.18","3.45"
"52.166992","10.24","6.79","6.20"
"52.237976","7.14","3.45","5.06"
"52.30899","8.32","5.96","2.55"
"52.379974","4.39","6.16","2.00"
"52.45099","5.18","4.63","-1.26"
"52.522003","4.71","4.98","-0.94"
"52.592987","5.10","6.32","0.51"
"52.664","7.57","8.71","0.55"
"52.734985","6.63","10.12","-0.86"
"52.806","5.37","3.18","-3.80"
"52.876984","10.12","3.10","6.47"
"52.947998","4.67","5.92","0.82"
"53.018982","4.43","4.75","2.86"
"53.089996","5.77","4.67","1.88"
"53.16098","4.12","4.90","1.45"
"53.231995","6.59","7.53","3.73"
"53.30298","6.75","8.71","2.28"
"53.373993","7.18","7.77","6.32"
"53.444977","9.77","2.51","3.49"
"53.51599","5.81","7.06","3.77"
"53.586975","5.92","4.86","1.84"
"53.65799","5.77","4.04","-0.55"
"53.729004","4.79","5.18","-0.24"
"53.799988","7.85","6.24","-0.78"
"53.871002","6.39","10.87","-0.78"
"53.941986","17.38","4.35","2.47"
"54.013","3.80","3.96","5.41"
"54.083984","9.34","6.47","0.16"
"54.155","4.35","4.75","1.61"
"54.225983","4.43","5.10","1.73"
"54.296997","4.08","6.39","2.43"
"54.36798","6.08","6.59","1.69"
"54.438995","6.75","8.16","3.22"
"54.50998","5.18","9.14","3.02"
"54.580994","9.34","4.67","5.33"
"54.651978","8.94","6.39","4.51"
"54.722992","5.41","5.81","1.77"
"54.793976","5.18","3.80","-1.49"
"54.86499","4.31","4.94","-0.71"
"54.935974","5.61","6.83","-0.27"
"55.00699","6.71","9.81","-0.67"
"55.078003","6.94","7.92","0.67"
"55.148987","5.26","4.12","-2.12"
"55.22","8.43","3.88","6.51"
"55.290985","4.90","5.84","1.02"
"55.362","5.10","4.59","1.29"
"55.432983","4.75","5.73","1.73"
"55.503998","5.26","6.24","1.49"
"55.57498","5.57","8.36","3.49"
"55.645996","5.69","9.02","3.65"
"55.71698","8.43","6.63","7.14"
"55.787994","7.65","4.20","1.84"
"55.85898","5.45","7.22","3.77"
"55.929993","5.02","4.98","1.92"
"56.000977","4.90","3.37","0.00"
"56.07199","4.79","4.82","-0.47"
"56.142975","7.34","7.57","-0.12"
"56.21399","5.49","9.96","-0.39"
"56.285004","17.57","6.24","1.96"
"56.355988","2.94","2.35","4.08"
"56.427002","10.90","6.35","1.37"
"56.497986","5.06","4.51","0.59"
"56.569","4.43","5.49","2.63"
"56.639984","3.96","5.65","1.53"
"56.711","6.55","5.73","1.77"
"56.781982","7.53","7.57","2.55"
"56.852997","5.49","8.67","4.94"
"56.92398","8.32","4.00","5.61"
"56.994995","8.79","6.98","4.59"
"57.776","3.92","5.06","2.12"
"57.846985","6.16","5.65","2.00"
"57.918","5.02","5.96","1.92"
"57.988983","5.49","7.18","2.75"
"58.059998","7.41","7.85","2.98"
"58.13098","8.71","5.81","6.79"
"58.201996","7.41","3.57","5.26"
"58.27298","7.41","7.37","3.14"
"58.343994","5.41","5.88","2.20"
"58.414978","6.55","4.20","-0.86"
"58.485992","4.90","4.75","-0.90"
"58.556976","5.49","6.32","0.43"
"58.62799","7.02","8.47","-0.39"
"58.698975","6.90","8.98","-2.31"
"58.76999","14.24","8.39","2.39"
"58.841003","7.65","5.69","1.84"
"58.911987","6.43","5.65","1.06"
"58.983","6.04","5.81","1.80"
"59.053986","4.24","5.33","1.57"
"59.125","4.94","6.08","2.35"
"59.337982","6.55","8.00","3.30"
"59.408997","7.57","5.84","6.67"
"59.47998","8.79","2.71","4.51"
"59.692993","6.43","4.67","0.04"
"59.763977","4.71","4.51","0.31"
"59.83499","6.04","5.33","-0.47"
"59.905975","5.84","6.75","-0.24"
"59.97699","6.67","8.04","-0.16"
"60.047974","5.84","9.34","-1.88"
"60.118988","13.53","10.75","0.94"
"60.190002","8.24","6.39","2.08"
"60.260986","6.71","5.65","0.27"
"60.332","5.61","5.88","1.88"
"60.402985","4.47","5.37","1.61"
"60.474","5.02","5.81","1.80"
"60.544983","5.02","6.00","1.96"
"60.615997","5.37","6.98","3.10"
"60.68698","7.02","8.04","3.53"
"60.757996","5.22","8.55","2.90"
"60.82898","9.49","4.28","6.04"
"60.899994","7.96","5.37","3.26"
"60.970978","5.73","6.04","2.79"
