"NAME:","walk_2_1.csv","",""
"EXPERIMENT TIME:","08/06/2023 12:34","",""
"ACTIVITY TYPE:","Walking","",""
"COUNT OF ACTUAL STEPS: ","105","",""
"","","",""
"Time [sec]","ACC X","ACC Y","ACC Z"
"0.0","8.55","2.94","6.16"
"0.07104492","8.36","7.73","3.57"
"0.14202881","5.84","5.41","2.24"
"0.2130127","4.98","3.65","-0.39"
"1.1360474","10.63","2.24","2.75"
"1.2070312","4.39","7.77","4.71"
"1.2780151","5.65","4.39","0.51"
"1.348999","4.71","4.94","-0.78"
"1.420044","4.75","5.73","-1.29"
"1.4910278","6.35","6.24","1.53"
"1.5620117","7.96","8.00","3.65"
"1.6329956","2.75","2.79","0.35"
"1.7040405","8.94","6.90","6.71"
"1.7750244","5.65","5.84","1.18"
"1.8460083","5.22","4.24","1.77"
"1.9169922","4.31","4.08","0.90"
"1.9880371","4.16","6.12","1.73"
"2.059021","7.10","8.04","3.65"
"2.130005","8.36","8.16","5.14"
"2.2010498","6.94","3.37","6.39"
"2.2720337","9.49","7.37","3.53"
"2.3430176","4.90","5.57","3.26"
"2.4140015","4.55","3.33","-1.22"
"2.4850464","4.51","4.35","-1.29"
"2.5560303","8.47","7.92","0.90"
"2.6270142","8.28","12.59","-1.88"
"2.697998","15.77","6.20","4.59"
"2.769043","6.35","5.57","2.71"
"2.8400269","7.02","4.90","1.57"
"2.9110107","5.33","4.24","1.92"
"2.9819946","4.00","5.37","1.18"
"3.0530396","5.49","6.67","2.04"
"3.1240234","7.06","7.49","2.75"
"3.1950073","6.71","8.87","1.73"
"3.2660522","8.00","1.92","6.32"
"3.3370361","9.57","7.45","4.04"
"3.40802","5.02","6.39","2.90"
"3.479004","4.71","2.94","0.08"
"3.5500488","4.43","4.12","-1.02"
"3.6210327","6.20","6.94","0.43"
"3.6920166","9.57","11.53","-2.39"
"3.7630005","18.51","12.63","2.94"
"3.8340454","3.45","5.30","4.31"
"3.9050293","11.41","4.94","-0.16"
"3.9760132","4.35","3.53","1.61"
"4.046997","3.69","5.84","2.00"
"4.118042","4.24","6.63","1.61"
"4.189026","6.94","6.86","3.18"
"4.26001","6.59","9.61","2.90"
"4.3309937","7.85","4.71","7.34"
"4.4020386","11.22","7.34","3.49"
"4.4730225","3.92","5.37","2.79"
"4.5440063","6.00","3.41","-0.39"
"4.6150513","3.92","5.14","-2.20"
"4.686035","6.35","7.77","-1.22"
"4.757019","9.22","10.63","-1.37"
"4.828003","19.97","4.75","3.30"
"4.899048","3.41","5.02","4.28"
"4.9700317","10.04","6.08","0.27"
"5.0410156","4.98","3.92","1.29"
"5.1119995","3.77","5.57","1.77"
"5.1830444","3.65","6.51","1.92"
"5.2540283","7.14","7.14","3.45"
"5.325012","7.57","9.73","2.98"
"5.395996","7.77","6.55","7.18"
"5.467041","10.90","5.45","3.73"
"5.538025","4.98","5.92","2.94"
"5.609009","4.51","4.51","0.20"
"5.6799927","3.92","4.75","-0.78"
"5.7510376","4.79","5.88","-1.10"
"5.8220215","8.36","7.10","1.22"
"5.8930054","10.79","9.57","5.69"
"5.9640503","4.12","6.83","0.31"
"6.035034","10.51","5.10","0.39"
"6.106018","3.30","4.90","1.69"
"6.177002","5.53","4.47","1.77"
"6.248047","3.26","5.41","1.45"
"7.9260254","7.85","6.47","1.22"
"7.9970093","4.43","11.73","-0.59"
"8.992004","6.20","7.61","1.57"
"9.063049","5.88","11.38","-2.28"
"9.41803","3.37","5.14","1.45"
"9.489014","7.10","6.43","1.96"
"9.559998","5.92","8.20","3.10"
"9.6310425","7.65","7.45","5.49"
"9.702026","8.43","1.88","2.94"
"9.77301","7.26","7.06","3.30"
"9.843994","5.33","5.53","1.45"
"9.915039","4.39","3.49","-0.39"
"9.986023","3.73","4.82","-1.29"
"10.057007","7.88","7.18","-0.86"
"10.128052","7.30","12.71","-1.53"
"10.199036","9.77","1.84","-5.37"
"10.27002","7.34","7.65","4.94"
"10.341003","6.55","5.22","-0.04"
"10.412048","4.59","3.73","1.77"
"10.483032","3.96","4.35","1.14"
"10.554016","5.02","7.22","3.06"
"10.625","6.90","8.36","3.65"
"10.696045","8.32","9.57","5.61"
"10.767029","7.18","2.20","4.67"
"10.838013","8.79","6.47","2.98"
"10.908997","5.22","4.86","2.51"
"10.9800415","4.55","4.67","-1.45"
"11.051025","4.35","4.75","-1.92"
"11.122009","6.04","8.43","1.26"
"11.192993","6.71","11.06","-2.24"
"11.264038","2.98","1.88","0.00"
"11.335022","8.90","6.04","0.75"
"11.406006","4.28","5.30","1.65"
"11.477051","4.98","3.73","1.61"
"11.548035","3.18","5.30","2.28"
"11.619019","7.61","7.02","2.55"
"11.690002","6.08","9.10","2.94"
"11.761047","6.00","8.83","7.06"
"11.832031","9.89","4.20","2.35"
"11.903015","7.10","6.16","3.77"
"11.973999","4.55","4.94","0.78"
"12.045044","3.96","4.04","-1.26"
"12.116028","5.18","5.49","-1.77"
"12.187012","6.71","8.24","1.33"
"12.257996","10.47","9.96","5.69"
"12.329041","6.63","4.90","-1.22"
"12.400024","9.41","4.67","1.77"
"12.471008","4.12","4.04","0.71"
"12.541992","4.31","4.82","2.82"
"12.613037","3.96","5.26","1.14"
"12.684021","7.45","7.45","2.94"
"12.755005","6.39","9.61","3.06"
"12.82605","5.33","8.04","7.49"
"12.897034","10.87","4.31","2.12"
"12.968018","4.98","6.47","3.45"
"13.039001","4.98","3.96","-2.08"
"13.110046","4.00","4.90","-1.06"
"13.18103","4.94","7.92","-1.22"
"13.252014","10.08","10.43","-1.18"
"13.322998","15.89","5.96","2.71"
"13.394043","4.90","4.59","1.10"
"13.465027","10.40","4.82","0.43"
"13.536011","3.96","4.47","1.69"
"13.606995","5.10","4.59","1.61"
"13.67804","3.61","5.88","1.92"
"13.749023","6.35","7.88","4.00"
"13.820007","8.04","9.26","2.90"
"13.891052","6.51","5.88","6.63"
"13.962036","11.22","5.57","4.04"
"14.03302","4.94","5.49","2.71"
"14.104004","4.43","3.92","-0.59"
"14.175049","4.43","4.67","-2.00"
"14.246033","5.81","7.53","-0.90"
"14.317017","10.12","11.69","-2.51"
"14.3880005","12.87","6.16","-1.65"
"14.459045","6.55","7.65","3.92"
"14.530029","5.96","5.10","0.20"
"14.601013","6.20","4.75","2.12"
"14.671997","3.84","4.98","1.06"
"15.524048","8.16","4.98","0.59"
"15.595032","4.75","5.10","1.80"
"15.666016","5.33","4.75","2.16"
"15.7369995","2.90","5.73","1.22"
"15.808044","7.45","6.43","2.00"
"15.879028","6.55","8.94","2.94"
"15.950012","9.06","7.34","5.41"
"16.020996","8.43","2.75","2.31"
"16.092041","6.51","6.24","2.94"
"16.163025","6.04","4.63","1.06"
"16.234009","4.00","3.96","0.27"
"16.304993","5.30","5.37","-0.98"
"16.376038","6.04","8.08","2.20"
"16.447021","9.81","9.96","5.14"
"16.518005","5.18","4.35","-1.96"
"16.58905","9.10","4.31","0.71"
"16.660034","3.26","3.92","1.77"
"16.731018","5.06","4.82","2.24"
"16.802002","3.45","5.30","0.63"
"16.873047","8.43","6.79","4.04"
"16.94403","5.02","10.12","3.49"
"17.015015","7.45","8.24","6.43"
"17.085999","9.18","2.98","2.59"
"17.157043","6.86","5.88","4.28"
"17.228027","4.67","4.00","0.82"
"17.299011","4.55","4.04","-0.55"
"17.369995","5.30","6.08","-1.84"
"17.44104","7.26","9.10","2.00"
"17.512024","10.20","8.79","5.14"
"17.583008","5.73","5.84","0.00"
"17.654053","9.18","5.41","1.22"
"17.725037","4.16","4.59","0.98"
"17.79602","5.06","4.67","2.16"
"17.867004","2.75","5.06","1.10"
"17.93805","9.10","6.55","3.33"
"18.009033","5.53","9.92","3.33"
"18.080017","6.55","7.10","7.57"
"18.151001","10.67","3.30","2.59"
"18.222046","5.06","6.28","3.45"
"18.29303","6.04","4.35","-0.59"
"18.364014","3.73","5.22","-0.67"
"18.434998","4.28","4.90","0.35"
"18.506042","8.16","7.77","0.16"
"18.577026","10.83","9.30","3.37"
"18.64801","4.51","8.04","-0.27"
"18.718994","8.87","4.28","-0.20"
"18.79004","3.61","4.55","1.14"
"18.861023","4.43","4.86","2.28"
"18.932007","4.59","4.98","1.53"
"19.003052","8.79","6.16","2.94"
"19.074036","3.41","11.18","3.45"
"19.14502","6.55","6.04","9.22"
"19.216003","11.45","3.84","4.63"
"19.287048","6.20","5.18","3.61"
"19.358032","5.84","3.88","-0.71"
"19.429016","5.69","3.96","-0.59"
"19.5","7.06","4.43","-1.37"
"19.571045","7.85","8.20","0.47"
"19.642029","8.55","8.55","0.51"
"19.713013","4.47","4.79","4.71"
"19.783997","10.32","3.37","0.35"
"19.855042","5.49","4.47","2.08"
"19.926025","5.06","4.39","2.51"
"19.99701","2.86","4.71","1.18"
"20.067993","7.37","7.30","2.94"
"20.139038","7.30","9.65","3.73"
"20.210022","9.34","5.69","7.57"
"20.281006","9.10","4.79","4.86"
"20.35205","4.04","5.14","2.55"
"20.423035","5.37","3.22","1.41"
"20.494019","3.96","5.06","-0.98"
"20.565002","3.80","5.69","-0.78"
"21.346008","10.71","3.84","4.55"
"21.416992","4.79","6.24","3.88"
"21.488037","5.41","3.02","0.35"
"21.559021","4.31","3.80","-0.90"
"21.630005","4.82","4.86","-1.77"
"21.70105","7.41","7.37","0.55"
"21.772034","12.12","8.90","2.39"
"21.843018","4.08","2.20","-2.35"
"21.914001","9.45","5.53","2.47"
"21.985046","5.02","4.82","0.63"
"22.05603","4.20","3.53","1.80"
"22.127014","4.20","5.53","1.10"
"22.197998","6.04","6.67","2.43"
"22.269043","6.24","8.32","3.45"
"22.340027","4.90","8.67","5.73"
"22.41101","9.45","2.00","1.96"
"22.481995","7.30","7.61","4.12"
"22.55304","4.59","4.98","1.80"
"22.624023","4.59","3.73","-0.55"
"22.695007","5.06","5.22","-1.49"
"22.766052","6.71","8.16","1.10"
"22.837036","5.73","11.92","-2.43"
"22.90802","6.28","1.37","-2.71"
"22.979004","8.00","6.51","2.98"
"23.050049","4.82","5.02","0.47"
"23.121033","5.22","4.75","2.24"
"23.192017","3.30","5.45","1.33"
"23.263","7.85","6.71","2.12"
"23.334045","5.84","8.32","3.61"
"23.40503","5.57","8.90","7.45"
"23.476013","8.20","3.10","4.43"
"23.546997","7.06","6.00","2.12"
"23.618042","4.63","4.71","1.33"
"23.689026","5.37","4.24","-1.29"
"23.76001","4.98","4.59","-2.39"
"23.830994","6.24","8.43","2.12"
"23.902039","5.53","11.22","-3.92"
"23.973022","6.90","2.28","-2.75"
"24.044006","8.08","5.69","1.14"
"24.115051","4.82","4.98","0.63"
"24.186035","5.02","4.24","1.65"
"24.257019","3.02","5.26","1.65"
"24.328003","7.96","6.79","2.12"
"24.399048","5.37","9.96","3.41"
"24.470032","6.47","7.88","7.57"
"24.541016","10.40","4.51","2.94"
"24.612","5.33","5.96","3.41"
"24.683044","5.02","3.69","-1.26"
"24.754028","4.75","3.77","-0.71"
"24.825012","4.86","6.47","-0.94"
"24.895996","6.16","7.77","2.63"
"24.967041","12.47","8.75","1.14"
"25.038025","2.90","7.85","4.98"
"25.109009","10.00","4.79","-0.78"
"25.179993","3.92","4.75","1.65"
"25.251038","4.51","4.59","1.69"
"25.322021","3.77","6.55","1.92"
"25.393005","7.49","7.06","3.02"
"25.46405","6.79","10.40","3.41"
"25.535034","7.77","5.41","7.34"
"25.606018","11.06","5.37","3.41"
"25.677002","3.84","5.81","3.53"
"25.748047","4.71","2.86","-1.37"
"25.81903","4.63","4.47","-0.63"
"25.890015","5.88","7.77","-0.63"
"25.960999","9.02","10.24","-1.22"
"26.032043","14.08","12.00","4.71"
"26.103027","7.06","8.08","3.10"
"26.174011","6.39","4.75","-0.04"
"26.244995","5.22","4.55","2.28"
"26.31604","3.37","5.61","0.43"
"26.387024","5.69","5.61","1.92"
"26.458008","6.94","7.77","3.45"
"26.529053","10.59","7.96","4.59"
"26.600037","7.73","2.28","5.10"
"27.381042","3.96","5.18","1.18"
"27.452026","6.59","6.86","2.63"
"27.52301","6.35","7.57","2.90"
"27.593994","8.55","8.08","6.12"
"27.66504","8.94","1.37","5.84"
"27.736023","7.61","5.96","3.06"
"27.807007","5.02","4.39","1.88"
"27.878052","4.75","4.12","-0.67"
"27.949036","4.31","5.61","-1.53"
"28.02002","7.30","6.55","2.00"
"28.091003","4.39","11.14","-0.08"
"28.162048","8.63","2.59","-0.20"
"28.233032","7.26","6.04","2.90"
"28.304016","5.06","4.75","0.35"
"28.375","4.71","4.31","2.08"
"28.446045","3.73","5.61","1.49"
"28.517029","6.51","6.51","2.82"
"28.588013","5.69","7.61","2.90"
"28.658997","8.20","6.83","5.69"
"28.730042","8.32","1.45","5.22"
"28.801025","9.06","5.77","4.00"
"28.87201","4.31","4.90","1.80"
"28.942993","4.51","4.35","-1.69"
"29.014038","4.63","4.79","-1.45"
"29.085022","6.67","7.85","1.53"
"29.156006","7.10","11.81","-2.39"
"29.22705","8.36","0.82","-1.14"
"29.298035","7.92","6.24","4.51"
"29.369019","4.98","4.98","0.71"
"29.440002","5.33","3.69","1.84"
"29.511047","3.57","4.98","1.22"
"29.582031","7.10","6.67","3.02"
"29.653015","5.57","8.43","3.57"
"29.723999","8.28","6.98","5.77"
"29.795044","9.14","1.73","4.00"
"29.866028","6.98","6.08","3.41"
"29.937012","5.14","4.82","1.84"
"30.007996","4.47","4.04","-0.98"
"30.07904","3.92","4.94","-1.73"
"30.150024","8.47","5.30","2.47"
"30.221008","6.83","11.02","-3.53"
"30.291992","9.30","-0.20","-2.16"
"30.363037","8.43","6.94","3.96"
"30.434021","5.69","5.22","0.59"
"30.505005","5.26","3.77","1.45"
"30.57605","3.73","4.67","1.53"
"30.647034","7.41","6.08","2.94"
"30.718018","4.63","8.12","3.96"
"30.789001","8.47","7.14","5.33"
"30.860046","10.24","1.92","2.39"
"31.072998","5.06","4.24","-0.35"
"31.144043","4.35","5.02","-1.80"
"31.215027","6.08","8.04","2.28"
"31.28601","6.28","10.79","-2.43"
"31.356995","4.47","2.43","-0.82"
"31.42804","9.18","5.65","2.82"
"31.499023","5.45","4.86","1.73"
"31.570007","5.57","4.67","1.88"
"31.641052","3.84","5.53","1.18"
"31.712036","6.32","7.30","2.31"
"31.78302","6.86","8.20","2.63"
"31.854004","6.51","8.98","3.84"
"31.925049","7.02","2.43","6.63"
"31.996033","9.92","4.82","2.67"
"32.067017","5.61","5.84","2.00"
"32.138","5.06","4.39","0.47"
"32.209045","4.98","4.79","-0.98"
"32.28003","7.92","6.98","0.16"
"32.351013","9.02","7.69","-2.00"
"32.421997","13.73","8.00","4.12"
"32.493042","5.41","5.06","3.96"
"32.564026","9.34","5.57","2.59"
"32.63501","4.86","4.12","0.82"
"33.34503","5.92","7.69","-1.22"
"33.416016","10.36","9.18","-1.02"
"33.487","15.57","9.65","5.37"
"33.558044","3.92","3.18","3.84"
"33.62903","10.08","4.08","0.08"
"33.700012","5.10","4.28","1.73"
"33.770996","3.88","5.18","1.73"
"33.84204","4.16","5.88","1.45"
"33.913025","6.43","7.53","3.77"
"33.98401","7.02","9.57","3.10"
"34.054993","5.81","5.49","6.35"
"34.126038","12.12","6.24","4.04"
"34.19702","4.35","5.61","3.53"
"34.268005","5.22","2.67","-1.10"
"34.33905","4.55","4.63","-0.98"
"34.410034","6.59","8.39","-0.75"
"34.481018","10.67","11.06","-2.86"
"34.552002","14.51","7.41","1.10"
"34.623047","6.04","7.10","4.43"
"34.69403","7.61","4.59","1.10"
"34.765015","5.69","4.31","1.88"
"34.836","4.20","5.18","1.18"
"34.907043","4.71","5.69","1.80"
"34.978027","7.69","6.94","2.98"
"35.04901","7.81","9.65","4.59"
"35.119995","8.47","3.33","7.18"
"35.19104","10.75","5.92","2.20"
"35.262024","4.90","5.45","3.06"
"35.333008","5.37","3.33","-0.63"
"35.404053","4.59","4.16","-0.55"
"35.475037","6.83","7.69","-0.75"
"35.54602","9.65","11.77","-3.06"
"35.617004","18.28","10.24","4.82"
"35.68805","5.06","5.84","2.00"
"35.759033","8.36","5.37","0.67"
"35.830017","5.02","3.92","1.57"
"35.901","4.00","4.63","1.45"
"35.972046","5.57","6.04","2.35"
"36.04303","7.65","7.06","2.94"
"36.114014","7.30","10.08","4.59"
"36.184998","9.14","3.65","7.18"
"36.256042","9.73","5.81","2.71"
"36.327026","4.00","4.79","1.96"
"36.39801","5.10","3.61","-0.59"
"36.468994","4.47","4.71","-1.69"
"36.54004","7.41","8.98","0.16"
"36.611023","7.73","12.16","-2.79"
"36.682007","9.65","-1.45","-5.84"
"36.75305","8.47","8.04","4.12"
"36.966003","4.00","4.75","1.18"
"37.03705","6.24","5.84","2.43"
"37.108032","6.32","8.12","3.53"
"37.179016","10.08","7.69","4.35"
"37.25","9.85","2.24","3.84"
"37.321045","6.12","6.32","3.65"
"37.39203","5.02","5.26","1.22"
"37.463013","5.02","3.92","-1.65"
"37.533997","4.31","5.57","-1.26"
"37.60504","6.83","7.88","1.49"
"37.676025","10.87","9.02","4.94"
"37.74701","4.51","6.86","3.57"
"37.817993","10.59","5.18","0.90"
"37.889038","4.28","4.28","1.14"
"37.960022","4.79","4.51","1.73"
"38.031006","3.49","5.69","0.90"
"38.10205","7.18","7.10","2.35"
"38.173035","5.92","10.20","2.71"
"38.24402","5.33","7.14","6.47"
"38.315002","11.85","6.79","4.94"
"38.386047","4.31","6.59","3.96"
"38.45703","5.10","3.49","0.78"
"38.528015","4.90","4.75","-0.47"
"38.599","4.71","7.06","-1.14"
"39.380005","10.67","4.43","4.16"
"39.45105","4.79","6.51","4.31"
"39.522034","6.04","3.49","0.47"
"39.593018","5.61","4.94","-0.27"
"39.664","4.67","6.59","-1.41"
"39.735046","7.14","6.75","2.43"
"39.80603","8.47","9.49","1.84"
"39.877014","6.83","4.20","0.94"
"39.947998","9.41","4.51","1.61"
"40.019043","4.75","6.16","1.10"
"40.090027","5.37","4.00","1.14"
"40.16101","3.57","4.94","1.61"
"40.231995","6.32","7.30","1.77"
"40.30304","6.43","7.18","3.73"
"40.374023","5.84","8.04","4.67"
"40.445007","7.34","3.02","5.96"
"40.516052","8.28","6.12","2.47"
"40.587036","5.88","5.02","2.43"
"40.65802","4.51","4.86","-1.02"
"40.729004","4.71","5.06","-1.33"
"40.80005","8.12","6.28","-1.96"
"40.871033","5.37","12.98","-1.37"
"40.942017","8.94","0.31","-1.57"
"41.013","8.94","7.14","2.24"
"41.084045","5.30","4.75","0.78"
"41.15503","5.65","4.67","2.31"
"41.226013","3.77","5.22","1.06"
"41.296997","6.08","6.75","2.00"
"41.368042","6.00","7.69","3.33"
"41.439026","8.51","8.39","3.30"
"41.51001","9.69","2.59","6.00"
"41.580994","8.20","6.08","2.82"
"41.65204","5.06","4.55","2.35"
"41.723022","5.06","4.04","-1.02"
"41.794006","4.94","3.80","-2.16"
"41.86505","6.79","9.18","-0.47"
"41.936035","8.98","12.71","-3.57"
"42.00702","11.89","-0.04","-4.20"
"42.078003","9.49","6.63","3.77"
"42.149048","5.96","4.59","0.67"
"42.22003","5.22","4.55","3.30"
"42.291016","3.65","5.22","1.06"
"42.362","7.65","7.02","2.12"
"42.433044","4.20","8.24","3.33"
"42.50403","8.24","5.73","4.20"
"42.575012","12.79","4.59","3.33"
"42.645996","5.65","6.71","3.69"
"42.71704","4.67","4.71","0.94"
"42.788025","4.90","3.92","-1.88"
"42.85901","4.04","5.22","-1.14"
"42.929993","6.47","5.37","2.00"
"43.001038","14.32","7.77","4.35"
"43.07202","4.63","4.39","1.41"
"43.143005","10.32","7.57","0.75"
"43.21405","4.24","4.24","0.27"
"43.285034","5.06","4.16","1.65"
"43.356018","3.65","5.37","1.61"
"43.427002","7.85","7.53","2.79"
"43.498047","5.57","9.77","3.18"
"43.56903","5.84","7.96","7.18"
"43.640015","11.45","3.49","2.86"
"43.711","4.79","7.49","3.92"
"43.782043","5.30","4.55","0.31"
"43.853027","4.86","4.51","-0.67"
"43.92401","4.35","5.41","-0.98"
"43.994995","7.61","7.06","0.98"
"44.06604","7.96","8.12","4.00"
"44.137024","5.06","7.30","0.27"
"44.208008","9.96","3.02","-1.02"
"44.279053","2.75","4.59","1.18"
"44.350037","5.10","5.14","1.65"
"44.42102","3.61","6.39","1.45"
"44.492004","7.18","6.67","2.12"
"44.56305","6.79","9.61","2.59"
"45.27301","11.14","4.67","-1.02"
"45.343994","3.49","4.20","1.57"
"45.41504","5.06","4.94","1.96"
"45.486023","3.92","6.20","1.29"
"45.557007","6.86","6.98","3.18"
"45.62805","5.73","10.16","3.30"
"45.699036","7.41","5.33","6.90"
"45.77002","12.16","4.90","2.16"
"45.841003","2.86","6.51","3.02"
"45.91205","5.45","4.20","-0.86"
"45.983032","5.33","4.98","-0.43"
"46.054016","6.28","7.88","-0.39"
"46.125","8.55","10.00","-0.94"
"46.196045","17.34","10.40","5.10"
"46.26703","5.57","6.59","5.22"
"46.338013","7.34","4.24","0.35"
"46.408997","6.35","5.06","2.24"
"46.48004","4.31","5.57","1.29"
"46.551025","3.61","6.71","1.77"
"46.62201","7.41","6.24","3.41"
"46.692993","6.67","10.32","2.82"
"46.764038","6.12","6.94","6.83"
"46.835022","10.71","3.30","0.55"
"46.906006","3.65","6.79","3.88"
"46.97705","5.02","3.53","-0.94"
"47.048035","5.26","4.59","-0.63"
"47.11902","5.41","5.53","-1.49"
"47.190002","6.83","6.71","1.92"
"47.261047","11.10","9.85","5.49"
"47.33203","4.28","5.18","0.27"
"47.403015","9.89","3.92","0.24"
"47.474","3.73","3.80","1.02"
"47.545044","4.79","5.06","2.39"
"47.616028","3.53","6.51","1.65"
"47.68701","6.67","7.69","2.79"
"47.757996","5.88","10.04","3.80"
"47.82904","5.73","7.37","6.00"
"47.900024","12.94","4.82","2.35"
"47.97101","2.63","6.86","3.77"
"48.041992","5.22","3.33","-2.16"
"48.113037","4.67","5.33","-1.10"
"48.18402","5.88","7.41","-0.55"
"48.255005","10.20","10.16","-1.69"
"48.32605","15.18","1.14","1.69"
"48.397034","2.94","4.98","6.47"
"48.468018","10.63","5.73","0.12"
"48.539","3.10","3.77","1.33"
"48.610046","3.84","4.90","1.37"
"48.68103","3.73","6.24","1.77"
"48.752014","7.18","6.35","3.37"
"48.822998","5.57","10.36","3.37"
"48.894043","6.94","4.86","7.61"
"48.965027","12.51","6.20","3.80"
"49.03601","2.63","6.28","3.10"
"49.106995","4.94","3.61","-1.02"
"49.17804","5.02","4.63","-1.73"
"49.249023","6.08","7.77","-0.12"
"49.320007","10.28","12.59","-3.14"
"49.391052","19.02","11.96","3.45"
"49.462036","6.51","8.08","4.04"
"49.53302","8.39","4.79","-0.20"
"49.604004","4.12","4.35","2.08"
"49.67505","3.06","5.14","1.02"
"49.746033","5.33","5.18","2.51"
"49.817017","6.04","7.85","3.30"
"49.888","9.65","9.61","4.71"
"49.959045","10.79","1.73","6.04"
"50.03003","9.89","5.96","2.75"
"50.101013","3.65","5.45","2.39"
"50.171997","5.84","3.69","-0.90"
"50.243042","4.00","4.79","-1.69"
"50.314026","6.75","7.10","-0.35"
"50.38501","11.41","11.18","-3.88"
"50.455994","16.32","14.40","4.12"
"50.52704","6.47","7.77","3.57"
"51.308044","3.84","4.63","-1.29"
"51.37903","7.61","6.79","-0.35"
"51.450012","8.59","12.16","-3.45"
"51.520996","19.14","11.14","6.32"
"51.59204","7.81","6.28","3.65"
"51.663025","8.28","5.18","1.41"
"51.73401","4.12","4.31","1.61"
"51.804993","3.26","5.65","1.14"
"51.876038","5.84","6.47","2.12"
"51.94702","7.69","7.14","3.30"
"52.018005","6.08","10.12","2.86"
"52.08905","8.00","3.73","6.90"
"52.160034","11.81","6.86","3.77"
"52.231018","4.12","6.35","2.55"
"52.302002","4.67","2.71","-0.71"
"52.373047","4.86","4.08","-1.80"
"52.44403","6.04","8.32","-0.43"
"52.515015","8.36","12.98","-2.35"
"52.586","20.01","11.65","5.96"
"52.657043","5.81","6.12","4.08"
"52.728027","8.75","4.63","0.00"
"52.79901","5.10","3.18","1.10"
"52.869995","2.98","5.45","1.33"
"52.94104","4.55","5.92","1.92"
"53.012024","7.45","6.83","3.53"
"53.083008","6.83","9.85","3.06"
"53.154053","9.77","4.28","7.73"
"53.225037","11.22","6.83","2.75"
"53.29602","4.16","6.04","2.90"
"53.367004","4.79","2.86","1.37"
"53.43805","4.75","4.94","-1.10"
"53.509033","5.92","7.26","-0.39"
"53.580017","10.16","11.34","-2.82"
"53.651","18.59","11.69","3.73"
"53.722046","5.81","8.24","4.28"
"53.79303","9.65","4.98","-1.65"
"53.864014","4.39","4.04","1.65"
"53.934998","3.69","5.61","1.41"
"54.006042","4.59","5.06","1.41"
"54.077026","7.49","7.22","3.61"
"54.14801","6.39","10.24","3.18"
"54.218994","9.65","4.63","6.55"
"54.29004","12.47","5.57","3.88"
"54.361023","3.26","6.28","3.18"
"54.432007","4.75","2.71","-0.24"
"54.50305","4.04","4.86","-1.29"
"54.574036","5.88","6.51","-0.08"
"54.64502","10.51","11.41","-3.18"
"54.716003","18.48","14.00","4.00"
"54.78705","6.51","7.77","4.94"
"54.858032","7.96","5.02","0.51"
"54.929016","4.59","4.59","1.33"
"55.0","3.73","5.14","1.02"
"55.071045","4.12","6.00","1.53"
"55.14203","7.41","6.63","3.18"
"55.213013","6.83","9.85","2.82"
"55.283997","9.18","5.06","6.67"
"55.35504","12.32","5.73","3.49"
"55.426025","4.31","6.63","3.18"
"55.49701","4.31","3.77","-1.45"
"55.567993","4.47","5.88","-0.43"
"55.639038","3.88","6.98","-0.94"
"55.710022","7.73","5.81","0.71"
"55.781006","10.12","9.18","6.35"
"55.85205","4.28","6.90","1.80"
"55.923035","10.20","4.31","0.51"
"55.99402","4.00","5.14","0.75"
"56.065002","4.71","5.14","1.77"
"56.136047","3.88","6.08","1.10"
"56.20703","7.34","7.45","2.24"
"56.278015","4.63","8.24","2.12"
