NAME:,walk_5_1.csv,,
EXPERIMENT TIME:,08/06/2023 12:39,,
ACTIVITY TYPE:,Walking,,
COUNT OF ACTUAL STEPS: ,105,,
,,,
Time [sec],ACC X,ACC Y,ACC Z
0,4.35,6.2,2.43
0.07092285,5.81,8.79,1.61
0.14196777,6.51,4.24,8.36
0.21289062,11.41,6.63,3.06
0.28393555,5.18,8,1.65
0.35498047,3.84,4.75,-0.59
0.42590332,4.28,3.18,-1.96
0.49694824,2.71,5.81,-1.37
0.56799316,8.12,6.94,-0.04
0.638916,3.1,7.26,-1.49
0.70996094,-4.08,9.41,7.14
0.7808838,12.67,8.16,0.75
0.8519287,2.51,5.14,0.59
0.92297363,4.98,4.47,1.41
0.9938965,3.77,5.65,1.57
1.0649414,5.26,6.63,1.65
1.1359863,4.63,8.98,3.1
1.2069092,7.73,6.86,10.59
1.2779541,14.04,6.79,4.16
1.348999,2.9,7.41,2.31
1.4199219,3.73,2.67,-0.12
1.4909668,4.35,3.92,-2.51
1.5618896,3.92,8.28,-0.24
1.6329346,9.14,11.45,-2.86
1.7039795,12.87,8.12,2.16
1.7749023,10.16,8.63,4.28
1.8469238,6.63,7.26,0
1.9179688,4.55,3.8,1.53
1.9888916,3.49,4.35,0.9
2.2729492,10,3.69,8.2
2.3439941,11.41,7.37,3.37
2.414917,4.79,6.51,1.49
3.3378906,13.53,2.98,7.3
3.4089355,7.49,8.39,5.06
3.4799805,5.06,6.12,2.04
3.5509033,2.86,2.47,0.82
3.6219482,4.24,2.98,-2.2
3.6929932,5.92,5.73,0.71
3.763916,8.2,12.59,-3.8
3.834961,20.01,-0.9,-0.86
3.9058838,8.28,7.69,4.75
3.9769287,8.71,6.08,1.92
4.0479736,4.47,3.3,0.63
4.1188965,3.3,4.63,0.63
4.1899414,3.92,6,1.92
4.2609863,5.41,6.71,2.35
4.331909,7.37,9.73,3.3
4.402954,13.34,5.02,7.65
4.473999,9.41,6.86,3.8
4.544922,6.35,6.28,3.06
4.615967,4.47,3.45,-0.86
4.6868896,3.73,4,-1.26
4.7579346,4.86,5.88,-1.73
4.8289795,8.43,9.53,-2.35
4.8999023,20.01,14.59,6.67
4.9709473,6.9,7.96,4.86
5.041992,9.34,5.06,1.96
5.112915,5.3,4.59,0.94
5.18396,2.86,4.2,0.47
5.254883,3.06,5.57,-0.35
5.3259277,5.57,6.94,2.16
5.3969727,7.45,8.08,2.98
5.4678955,13.3,2.47,6.04
5.5389404,6.24,8.67,6.2
5.6099854,6.2,4.24,2.31
5.680908,5.06,3.92,-0.12
5.751953,4.28,4.39,-0.35
5.822998,7.57,4.82,-0.31
5.893921,8.94,6.67,-1.29
5.964966,10.08,5.14,3.96
6.0358887,1.45,5.73,7.88
6.1069336,8.9,4.43,1.06
6.1779785,6.2,6.2,3.1
6.2489014,3.88,4.28,1.1
6.3199463,3.3,4.59,1.8
6.390991,5.06,6,1.61
6.461914,6.51,8.47,2.04
6.532959,9.69,4.28,7.65
6.604004,15.22,11.38,5.37
6.6749268,6.47,6.28,0.51
6.7459717,5.96,4.28,0.12
6.8168945,3.06,3.92,-0.82
6.8879395,4.75,5.84,-1.96
6.9589844,6.32,6.86,1.02
7.029907,8.24,8.51,5.37
7.100952,3.18,8.36,3.73
7.171997,10.63,5.02,0.35
7.24292,3.84,4.94,0.9
7.313965,4.67,5.3,1.73
7.3848877,2.24,6.04,1.41
7.4559326,5.61,7.06,1.02
7.5269775,4.63,7.69,1.49
7.5979004,6.67,8.59,9.57
7.6689453,12.71,5.41,2.75
7.73999,5.77,7.14,3.1
7.810913,4.08,3.61,-2.43
7.881958,4.28,4.08,-0.67
7.953003,3.57,5.88,-1.65
8.023926,7.88,8.24,0.35
8.094971,19.18,5.33,5.18
8.165894,4.39,4.9,5.45
8.236938,10.55,4.35,-0.51
8.307983,4.55,4.94,1.45
8.378906,3.53,4.43,1.14
8.449951,3.53,6,1.02
8.520996,5.53,6.16,1.45
9.372925,5.69,6.79,2.43
9.44397,5.41,4.47,1.88
9.514893,2.71,6.55,0.82
9.5859375,5.73,6.94,1.65
9.656982,4.98,6.9,2.08
9.727905,5.3,6.94,5.1
9.79895,12.91,2.98,4.51
9.869995,6.04,9.22,4.63
9.940918,4.82,4.9,0.86
10.011963,4.9,3.45,-0.67
10.082886,4.08,4.55,-1.69
10.153931,6.16,7.53,0.47
10.224976,6.47,12,-3.02
10.295898,13.06,2.59,-0.27
10.366943,6.39,7.37,4.51
10.437988,7.61,5.33,0.47
10.508911,6,4.79,1.45
10.579956,3.77,5.41,1.37
10.651001,4.35,5.88,1.45
10.721924,6.24,7.18,2.08
10.792969,5.92,8.43,1.53
10.863892,3.14,9.34,7.85
10.934937,14.4,4.24,3.49
11.005981,5.1,9.85,5.77
11.076904,5.41,3.73,0.24
11.147949,4.35,4.43,-0.78
11.218994,3.84,5.02,-1.69
11.289917,7.53,6.9,1.41
11.360962,11.53,11.41,4
11.431885,3.18,5.26,-2.59
11.50293,9.89,5.73,4.16
11.573975,5.73,4.9,0.94
11.644897,4.51,5.02,2.31
11.715942,4.28,5.33,0.43
11.786987,4.86,6.47,1.45
11.85791,5.02,6.59,3.73
11.928955,8.55,7.18,1.96
12,14.24,3.06,6.12
12.070923,7.14,7.49,4.24
12.141968,5.3,6.24,1.1
12.212891,4.16,4.31,-1.45
12.283936,3.69,4.2,-2.28
12.35498,6,5.73,1.92
12.425903,3.53,11.89,-2.82
12.496948,4.35,0.75,-1.69
12.567993,11.69,3.22,0.43
12.638916,4.59,6.39,2.75
12.709961,5.69,4.94,2.39
12.780884,1.73,5.37,-0.04
12.851929,6.16,6.32,1.61
12.922974,3.73,7.02,2.75
12.9938965,9.06,5.88,0.75
13.064941,13.73,5.69,5.33
13.135986,6.86,7.65,4.67
13.206909,5.88,4.55,0.16
13.277954,3.69,5.49,0.04
13.348999,4,3.73,-1.88
13.419922,5.14,5.77,3.8
13.490967,8.39,8.71,5.65
13.56189,3.22,6.55,-1.02
13.632935,11.69,5.33,0.59
13.7039795,4.75,4.79,0.86
13.774902,4.67,5.41,3.26
13.845947,3.41,6.35,1.73
13.916992,6.04,6.39,0.08
13.987915,4.94,8.12,2.12
14.05896,2.75,9.85,6.59
14.129883,15.61,5.37,3.92
14.200928,3.8,9.3,5.26
14.271973,4.98,3.65,-1.88
14.3428955,2.98,4.71,-1.1
14.41394,3.45,6.32,-2
14.484985,7.41,5.88,1.65
15.336914,4.9,3.53,-1.37
15.407959,3.3,4.51,-1.37
15.479004,5.53,6.51,-1.18
15.549927,9.85,11.96,-2.31
15.620972,20.01,15.14,3.69
15.691895,8.51,7.37,4.04
15.762939,6.79,6.04,1.49
15.833984,5.1,4.24,1.57
15.904907,3.37,4.31,0.9
15.975952,4.31,5.92,1.84
16.046997,6.08,6.71,3.61
16.11792,7.85,8.32,2.71
16.188965,12.79,2.59,5.84
16.259888,8.98,7.53,3.96
16.330933,4.47,6.35,2.39
16.401978,4.67,2.79,-1.77
16.4729,3.45,3.92,-1.77
16.543945,6.86,5.61,1.14
16.61499,7.3,11.34,-3.22
16.685913,10.36,3.77,-4.12
16.756958,10.12,6.2,3.53
16.828003,6.28,6.9,1.26
16.898926,5.02,4.9,1.73
16.96997,2.59,4.9,0.16
17.040894,6.35,6.55,1.84
17.111938,3.41,7.77,2.04
17.182983,7.69,7.45,5.18
17.253906,14,4.43,3.73
17.324951,4.86,9.22,4.51
17.395996,5.73,3.57,0.9
17.466919,4.28,4.08,-0.9
17.537964,3.26,5.06,-1.69
17.608887,6.98,5.14,2.35
17.679932,0.04,10.79,-2.9
17.750977,5.65,4.98,-1.8
17.8219,12.51,4.47,-0.98
17.892944,3.57,6.51,3.06
17.96399,6.47,4.63,2.31
18.034912,1.88,6.43,0.94
18.105957,5.53,6.35,0
18.177002,4.75,6.75,1.84
18.247925,7.41,6.79,0.9
18.31897,17.61,4.12,4.51
18.389893,4.79,8.71,4.39
18.460938,5.73,3.1,0.71
18.531982,3.53,4.79,-1.29
18.602905,3.69,4.31,-2.24
18.67395,7.3,6.94,1.77
18.744995,4.2,9.92,-2.51
18.815918,4.43,5.65,0.94
18.886963,10.47,4,-0.31
18.957886,3.45,6.24,2.59
19.02893,6.51,5.02,0.94
19.099976,3.26,6.08,0.98
19.170898,6.2,6.28,1.96
19.241943,5.45,8.51,1.92
19.312988,4.24,8.28,7.41
19.383911,12.55,3.41,3.84
19.454956,5.41,9.02,4.86
19.526001,4.55,4.86,1.29
19.596924,4.71,3.96,-1.69
19.667969,3.96,4.9,-0.55
19.738892,5.92,7.02,1.88
19.809937,11.14,8.63,5.02
19.880981,3.53,3.49,-2.82
19.951904,11.34,3.88,1.57
20.02295,5.02,5.3,1.02
20.093994,4.24,5.33,2.08
20.164917,4.31,4.98,1.37
20.235962,7.14,5.92,1.29
20.306885,4.98,7.1,2.55
20.37793,9.34,5.3,2.79
20.590942,5.02,4.71,0.86
21.300903,5.02,6.86,4.16
21.371948,6.67,10.16,3.02
21.442993,8.28,7.02,8.28
21.513916,11.65,4.63,2.67
21.58496,6,7.14,3.77
21.655884,3.88,3.18,0.08
21.726929,2.94,4.71,-0.47
21.797974,5.69,6.08,-2.31
21.868896,8.43,8.43,0.67
21.939941,7.53,9.18,3.41
22.010986,3.22,9.89,4.71
22.08191,10.63,5.81,0.59
22.152954,2.86,4.28,1.73
22.223999,5.65,4.43,2.04
22.294922,3.37,6.08,2.2
22.365967,6.43,7.14,2.67
22.43689,6.86,9.85,2.55
22.507935,6.9,4.55,7.37
22.57898,14.28,6.35,3.61
22.649902,4.16,6.59,3.18
22.720947,4.67,2.82,-2.63
22.791992,3.14,4.98,-1.45
22.862915,4.24,5.81,0.9
22.93396,8.94,10.71,-3.88
23.004883,18.79,2.39,2.67
23.075928,5.3,6.83,3.73
23.146973,9.61,6.67,0.43
23.217896,2.82,4.35,-0.47
23.28894,3.49,4.82,1.37
23.359985,3.26,5.69,1.29
23.430908,7.14,6.83,2.08
23.501953,7.26,9.65,3.14
23.572998,8.71,1.37,6.71
23.64392,12.24,8.55,4.47
23.714966,3.1,5.92,2.51
23.785889,5.57,3.18,-0.82
23.856934,4.39,3.65,-2.59
23.927979,4.39,8.39,0.12
23.998901,8.2,11.61,-2.16
24.069946,20.01,7.81,4.43
24.140991,7.92,6,1.96
24.211914,7.96,5.1,2.2
24.282959,5.73,3.49,0.82
24.354004,2.47,5.53,0.59
24.424927,4.63,6.59,1.8
24.495972,5.37,5.96,4.86
24.566895,8.39,6,3.02
24.63794,11.81,1.37,4.24
24.708984,6.12,8.63,4.43
24.779907,4.55,4.98,1.18
24.850952,4.39,3.92,-0.67
24.921997,3.77,4.55,-2.08
24.99292,7.26,6.59,1.73
25.063965,11.57,12.47,0
25.134888,3.02,3.3,-5.06
25.205933,8.94,8.94,6.16
25.276978,5.88,5.69,0.2
25.3479,4.71,4.55,1.37
25.418945,3.92,4.98,1.26
25.48999,4.98,5.53,2.2
25.560913,6.79,6.86,3.69
25.631958,10.87,7.02,2.86
25.703003,10,1.57,5.88
25.773926,8.79,7.02,3.61
25.84497,4.16,6.08,2.39
25.915894,5.3,3.73,-1.29
25.986938,3.84,4.51,-1.65
26.057983,6.75,6.71,-0.24
26.128906,8.36,11.3,-3.14
26.199951,13.45,5.33,-1.41
26.270996,7.37,8.87,6.83
26.341919,7.18,5.57,-1.14
26.412964,4.9,4.43,1.84
27.335938,6.35,7.14,2.59
27.406982,7.53,4.9,0.31
27.477905,5.37,4.86,2.28
27.54895,4.24,5.26,1.41
27.619995,3.1,6.08,1.53
27.690918,6.94,7.26,3.45
27.761963,6.86,9.65,3.65
27.832886,8.98,5.96,8.87
27.90393,11.61,5.73,2.79
27.974976,4.9,5.96,2.71
28.045898,4.9,3.53,-1.18
28.116943,3.61,5.06,-1.37
28.187988,6.04,8.9,-1.65
28.258911,8.36,11.73,-2.63
28.329956,18.12,11.18,3.49
28.401001,5.37,7.57,4.35
28.471924,9.49,6.32,0.08
28.542969,3.88,2.71,1.1
28.613892,4.28,4.94,1.18
28.684937,4.39,6.2,1.77
28.755981,6.51,6.9,2.86
28.826904,9.26,7.85,3.26
28.89795,8.94,1.65,5.84
28.968994,8.67,7.53,4.2
29.039917,5.26,5.57,3.88
29.110962,5.53,3.57,-0.9
29.181885,3.02,4.35,-1.73
29.25293,6.28,7.34,1.1
29.323975,6.24,9.81,-3.06
29.394897,4.39,2.24,-1.69
29.465942,8.55,6,2.39
29.536987,5.3,4.79,0.47
29.60791,5.1,4.08,2.08
29.678955,2.82,5.49,0.59
29.75,7.81,6.63,2.28
29.820923,3.8,8.51,2.31
29.891968,8.83,6.94,5.26
29.96289,11.65,3.3,2.75
30.033936,5.3,7.45,4.04
30.10498,6.04,2.9,0.59
30.175903,4.71,4.67,-0.78
30.246948,3.77,4.98,-1.69
30.317993,7.49,7.02,1.29
30.388916,2.24,11.41,-0.98
30.45996,6.2,2.12,-2.63
30.530884,10.04,4.79,1.1
30.601929,3.84,4.86,2.12
30.672974,5.81,4.47,2.12
30.743896,2.9,5.37,1.45
30.814941,7.49,6.98,2.86
30.885986,5.49,10.04,2.24
30.95691,6.59,7.92,8.59
31.027954,13.57,5.45,3.26
31.098999,4.28,6.75,4.08
31.169922,4.43,3.26,-1.69
31.240967,4.12,4.43,-1.26
31.31189,4.79,8.39,-1.29
31.382935,9.69,12.63,-2.94
31.45398,18.83,5.1,3.57
31.524902,9.26,2.59,-4.43
31.595947,9.73,5.45,-0.35
31.666992,3.26,3.49,0.98
31.737915,3.45,5.3,1.37
31.80896,4.9,5.65,1.96
31.879883,6.71,7.41,3.49
31.950928,6.98,9.49,2.51
32.021973,4.71,7.96,8.39
32.092896,13.14,4.47,3.26
32.16394,4,8.04,4.35
32.234985,4.94,2.39,-3.02
32.30591,4.31,3.53,-1.14
32.376953,4.67,7.1,-1.02
32.589966,3.96,4.75,6.59
33.299927,5.26,3.1,-1.18
33.37097,3.8,4.39,-2.16
33.441895,7.77,7.06,0.16
33.51294,5.3,15.73,-1.41
33.583984,11.26,-2.67,-0.2
33.654907,7.65,8.04,2.35
33.725952,6.43,5.02,0.75
33.796997,5.61,3.88,2.43
33.86792,3.61,4.2,1.02
33.938965,5.84,6.83,2.79
34.009888,7.06,7.65,2.2
34.080933,9.61,7.49,5.96
34.151978,9.96,2.28,5.02
34.2229,6.59,7.02,3.57
34.293945,4.98,5.69,1.92
34.36499,4.24,3.33,-1.14
34.435913,3.57,4.12,-2.24
34.506958,7.3,6.04,1.61
34.578003,4.98,11.85,-1.73
34.648926,3.61,4.55,-4
34.71997,9.06,7.49,3.26
34.790894,5.3,4.79,0.43
34.86194,4.9,4.59,2.24
34.932983,3.57,5.57,0.47
35.003906,6.24,5.88,1.53
35.07495,5.33,7.69,2.86
35.145996,9.69,6.43,4.82
35.21692,11.57,4.67,3.84
35.287964,5.77,7.3,3.8
35.358887,5.77,2.9,1.06
35.42993,5.33,3.53,-0.9
35.500977,3.06,4.59,-1.33
35.5719,5.14,7.34,4.9
35.642944,12.12,11.02,5.88
35.71399,2.2,6.2,0.78
35.784912,10.83,4.04,-0.43
35.855957,4.79,5.61,1.84
35.927002,4.94,4.31,1.65
35.997925,2.86,5.81,0.78
36.06897,7.73,6.83,2.04
36.139893,4.59,10,2.16
36.210938,8.71,8.36,8.9
36.281982,11.26,4,0.98
36.352905,4.86,7.65,4.28
36.42395,4.67,3.14,-0.86
36.494995,3.88,5.06,-0.75
36.565918,5.1,7.06,-1.84
36.636963,9.77,6.59,-0.75
36.707886,12.87,9.02,4.82
36.77893,3.73,4.71,3.88
36.849976,8.9,4.24,-1.77
36.9209,4.67,5.02,2.39
36.991943,3.8,5.81,1.57
37.06299,4.75,5.92,1.69
37.13391,5.88,6.94,2.98
37.204956,7.73,8.63,3.3
37.276,8.43,5.77,8.83
37.346924,10.98,6.16,2.28
37.41797,4.08,6.55,2.43
37.48889,5.06,2.94,0.55
37.559937,4.35,4.98,-1.33
37.63098,6.55,7.14,0.04
37.701904,9.02,11.89,-3.53
37.77295,13.85,7.61,-1.96
37.843994,6.79,8.63,7.02
37.914917,7.18,5.1,-0.04
37.985962,5.02,5.53,2.82
38.056885,4.08,5.41,0.35
38.12793,5.49,6.28,2.43
38.198975,6.94,6.83,3.61
38.269897,8.75,8.16,3.65
38.340942,8.59,2.94,6.55
38.411987,9.49,7.88,3.37
38.48291,4.98,6.04,2.47
38.553955,4.9,4,-1.22
39.79492,6.67,7.34,1.37
39.865967,11.96,12.2,3.65
40.78894,4.67,5.57,-1.65
40.859985,8.36,4.75,2.43
41.78296,4.35,4.86,-1.18
41.854004,4.55,5.96,-0.47
41.924927,8.39,8.36,-0.55
41.99597,16.2,6.12,4.67
42.066895,2.63,6.86,5.92
42.13794,9.92,5.81,-0.12
42.208984,4.86,5.1,2
42.279907,4.28,5.69,1.49
42.350952,3.57,6.16,1.22
42.421997,5.96,6.04,2.24
42.49292,6.63,8.94,2.47
42.563965,7.69,5.3,6.63
42.634888,13.81,5.69,2.9
42.705933,3.88,7.37,3.41
42.776978,4.79,3.1,-1.33
42.8479,3.96,5.49,-0.98
42.918945,4.63,7.81,-0.35
42.98999,8,6.67,0.9
43.060913,12.08,7.69,1.33
43.131958,2.28,6.71,5.81
43.203003,10.08,4.47,-1.02
43.273926,3.06,4.31,0.9
43.34497,4.43,5.69,1.06
43.415894,3.84,6,1.57
43.48694,6.9,7.14,2.55
43.557983,5.92,8.51,2.39
43.628906,5.3,7.85,7.49
43.69995,12.71,4.59,2.16
43.770996,4.94,8.16,4
43.84192,4.71,3.41,-2.28
43.912964,4.04,4,-1.29
43.983887,4.67,6.43,-0.59
44.05493,8.79,7.69,-0.12
44.125977,13.06,4.16,3.02
44.1969,3.06,3.88,6.12
44.267944,11.45,5.41,-0.04
44.33899,3.69,3.73,1.14
44.409912,3.92,5.22,2.31
44.480957,3.77,5.96,1.29
44.552002,5.57,7.37,3.45
44.622925,6.94,9.69,2.08
44.69397,5.96,8.16,8.28
44.764893,13.93,4.9,3.61
44.835938,2.79,7.65,4.75
44.906982,5.06,3.06,-1.49
44.977905,4.59,5.41,-1.29
45.04895,4.67,7.18,-0.39
45.119995,9.81,9.85,-1.18
45.190918,12.55,4.94,4.86
45.261963,3.33,3.49,4.08
45.332886,10,5.61,-0.27
45.40393,4.28,4.16,1.45
45.474976,4.63,4.75,1.69
45.5459,4.04,6.2,1.37
45.616943,6.16,6.43,3.57
45.68799,4.35,9.53,2.39
45.75891,5.22,9.02,6.71
45.829956,12.2,3.3,3.53
45.901,4.79,7.92,4.28
45.971924,4.79,4.59,-0.63
46.04297,4.31,5.33,-0.86
46.11389,4.12,6.43,-1.57
46.184937,7.3,3.61,2.51
46.25598,12.51,7.81,2.24
46.326904,3.73,4.59,1.18
46.39795,10.83,3.77,-0.24
46.468994,5.45,3.45,1.73
46.539917,3.84,4.94,1.84
46.610962,4,6.59,0.24
46.681885,6.71,6.55,1.53
46.75293,5.33,7.53,2.75
46.823975,7.3,6.79,2.47
46.894897,13.61,2.55,5.65
46.965942,6.67,6.55,3.18
48.34497,10.94,11.45,-1.61
49.33899,7.02,5.06,1.29
50.261963,5.73,4.63,-0.78
50.332886,3.73,5.49,-0.98
50.40393,7.53,4.82,-0.12
50.474976,4.67,9.69,-2.31
50.5459,8,2.98,-3.37
50.616943,6.51,5.69,4.75
50.68799,6.39,5.96,-0.2
50.75891,5.37,5.41,2.39
50.829956,4.59,6.35,0.63
50.901,4.51,6.24,1.41
50.971924,6.59,5.73,2.9
51.04297,8.98,8,2.67
51.11389,9.57,5.02,7.26
51.184937,8.67,5.88,2.86
51.25598,6.86,6.67,2.82
51.326904,5.57,4.59,1.29
51.39795,3.96,5.41,-0.35
51.468994,5.96,7.26,-0.67
51.539917,6.75,7.3,-0.08
51.610962,9.73,9.06,1.65
51.681885,4.55,6.28,1.26
51.75293,6.59,3.61,2.51
51.823975,5.92,6.04,1.02
51.894897,4.16,5.49,1.37
51.965942,4.94,6.47,2
52.036987,6.16,7.45,2.12
52.10791,4.63,6.35,2.71
52.178955,10.51,6.47,2.43
52.25,5.33,2.43,0.86
52.320923,8.08,9.02,2.79
52.391968,6.2,4.86,0.08
52.46289,5.88,5.41,-1.1
52.533936,5.84,5.77,0.39
52.60498,6.94,6.51,0.98
52.675903,7.61,5.61,0.86
52.74695,7.02,5.37,2.9
52.817993,4.71,5.33,2.86
52.888916,7.18,6.2,3.14
52.95996,6.43,7.26,2.71
53.030884,5.37,6.2,2.55
53.10193,6.83,5.84,2.63
53.172974,6.04,5.77,4
53.243896,7.26,4.71,3.92
53.31494,8.36,3.3,2.04
53.385986,6.79,7.61,-0.24
53.45691,6.79,8.43,-0.16
53.527954,6.51,5.14,-0.75
53.599,5.22,5.96,-0.63
53.66992,6.94,6.51,-0.16
53.740967,8.36,5.77,0.55
53.81189,8.24,6.04,3.53
53.882935,4.28,4.35,1.06
53.95398,7.81,7.81,3.06
54.024902,4.9,6.47,2.71
54.095947,6.12,6.04,2.82
54.166992,6.67,6.16,2.31
54.237915,5.61,6.47,2.75
54.30896,9.61,5.18,1.92
54.379883,6.83,3.18,2.98
54.450928,6.47,6.35,-0.86
54.521973,7.26,8.28,0.75
54.592896,6.08,4.79,-0.63
54.66394,6.9,5.18,-1.02
54.734985,7.3,5.81,-0.16
54.80591,7.49,5.96,-0.47
54.876953,8.28,6.12,0.75
54.947998,3.49,5.14,0.63
55.01892,7.22,5.73,3.53
55.089966,6.08,5.81,1.88
55.16089,6.04,5.69,2.59
55.231934,4.71,7.18,2.16
55.30298,5.69,6.9,2.28
55.3739,6.47,6.98,3.33
55.444946,8.94,6.79,3.61
56.296997,5.3,5.3,1.88
56.36792,5.3,6.04,2.75
56.438965,5.92,7.26,2.75
56.509888,7.65,7.61,1.69
56.580933,3.53,5.57,7.41
56.651978,13.14,5.45,3.49
56.7229,2.71,7.53,3.96
56.793945,5.3,2.31,-0.75
56.86499,5.06,4.82,-1.37
56.935913,4.39,6.28,-1.14
57.006958,8.04,4.47,1.96
57.078003,8.2,10.28,2.63
57.148926,2,7.53,2.67
57.21997,10.9,3.65,-1.65
57.290894,3.41,4.2,1.88
57.36194,5.06,5.3,1.57
57.432983,4.08,6.51,1.57
57.503906,6.28,6.39,2.12
57.57495,7.02,8.47,2.16
57.645996,5.57,7.81,6.35
57.71692,12.32,4.55,1.53
57.787964,3.73,8.24,2.9
57.858887,4.86,3.96,-0.47
57.92993,4.82,4.51,-1.1
58.000977,4.86,6.59,-2.43
58.0719,7.92,5.49,1.41
58.142944,8.75,8.83,1.77
58.21399,4,6.2,0.78
58.284912,10.71,4.59,-0.16
58.355957,3.88,4.82,1.29
58.427002,5.18,5.02,1.57
58.497925,3.65,6.75,1.33
58.56897,5.84,7.22,1.88
58.639893,5.06,7.37,1.84
58.710938,7.45,7.34,4.9
58.781982,11.22,1.84,3.92
58.852905,6.39,10,4.98
58.92395,4.98,5.61,1.02
58.994995,5.06,4.04,-1.96
59.065918,4.47,4.63,-1.57
59.136963,6.35,7.65,0.2
59.207886,7.34,11.06,-2.24
59.27893,15.18,10.67,6.51
59.349976,4.63,4.71,3.65
59.4209,11.41,6.98,2.31
59.491943,4.16,4.08,1.45
59.56299,4.08,4.9,0.98
59.63391,5.1,5.84,1.22
59.704956,5.33,6.32,3.22
59.776,5.92,8.87,2.16
59.846924,5.45,7.14,5.65
59.91797,13.02,4.79,2
59.98889,3.92,7.57,3.65
60.059937,4.98,4.12,-0.39
60.13098,3.96,5.53,-0.86
60.201904,4.63,6.08,-1.33
60.27295,7.22,6.28,1.26
60.343994,6.12,10.59,-0.12
60.414917,7.1,4.28,-0.27
60.485962,7.85,7.18,4.71
60.556885,6.75,6.24,0.59
60.62793,5.88,4.59,1.8
60.698975,4.63,5.18,2.04
60.769897,4.79,5.81,1.73
60.840942,5.84,6.47,2.9
60.911987,6.16,8.63,2.12
60.98291,4.86,8.12,6.71
61.053955,14.51,5.02,4.2
61.125,4.12,7.77,4.71
61.195923,4.9,3.3,-0.9
