NAME:,walk_4_2.csv,,
EXPERIMENT TIME:,05/06/2023 21:18,,
ACTIVITY TYPE:,Walking,,
COUNT OF ACTUAL STEPS:,300,,
,,,
Time [sec],ACC X,ACC Y,ACC Z
0.0,0.24,1.77,8.98
0.09000015,0.51,2.2,8.47
0.17000008,0.39,1.73,8.51
0.26000023,0.55,1.49,9.02
0.34999943,1.96,1.77,8.75
0.42999935,-0.16,3.84,9.73
0.5199995,0.39,2.79,8.55
0.5999994,1.33,3.3,7.88
0.6899996,0.16,3.3,8.08
0.77999973,1.88,3.65,8.75
0.85999966,2.43,3.61,12.91
0.9499998,0.75,-0.47,7.57
1.0299997,0.04,1.06,8.67
1.1199999,0.9,1.57,8.55
1.21,-2.08,0.35,7.1
1.29,-0.9,1.69,8.0
1.3800001,-0.9,1.41,13.14
1.46,0.31,-2.94,11.1
1.5500002,0.94,3.18,9.81
1.6400003,-0.43,0.78,3.61
1.7200003,2.28,2.75,5.22
1.8100004,-1.84,3.37,7.41
1.8900003,2.2,5.69,8.63
1.9800005,2.67,-1.02,9.61
2.0700006,-0.12,0.71,12.12
2.1500006,0.39,2.0,5.88
2.2400007,-1.65,2.31,5.45
2.3200006,0.31,2.79,10.47
2.4100008,-0.59,3.02,12.32
2.499999,2.16,2.43,13.96
2.5800009,-1.29,1.49,5.18
2.6699991,2.98,1.69,5.06
2.749999,-0.39,4.31,4.86
2.8399992,1.57,2.39,12.67
2.9299994,4.63,-3.69,15.61
3.0099993,-0.31,1.06,11.57
3.0999994,3.77,1.37,6.71
3.1799994,-5.22,2.43,7.22
3.2699995,0.24,2.59,5.81
3.3599997,-1.49,4.2,12.16
3.4399996,3.37,-3.02,14.12
3.5299997,-3.96,2.24,9.61
3.6099997,0.71,1.84,5.22
3.6999998,0.27,2.86,4.94
3.79,1.18,1.57,11.49
3.87,2.47,4.94,9.49
3.96,-0.47,-0.78,8.71
4.04,2.2,1.69,8.51
4.13,-1.26,0.16,5.02
4.2200003,-1.06,1.73,6.24
4.3,-0.39,2.2,10.55
4.3900003,-0.9,2.24,10.87
4.4700003,2.98,0.27,15.49
4.5600004,-1.1,2.75,6.04
4.6500006,1.8,1.69,3.18
4.7300005,-0.71,2.59,5.22
4.8200006,-0.27,2.28,12.4
4.9000006,0.2,2.9,14.98
4.9900007,1.49,2.9,10.47
5.080001,1.53,1.1,7.02
5.160001,-1.84,0.82,5.92
5.249999,-1.26,1.65,5.53
5.330001,-0.31,1.41,11.34
5.419999,2.55,-4.55,13.02
5.5099993,-1.1,1.73,12.28
5.589999,-0.67,1.84,4.59
5.6799994,1.73,2.12,5.3
5.7599993,-0.35,3.57,7.14
5.8499994,1.77,4.28,11.53
5.9399996,5.45,-4.16,12.59
6.0199995,0.51,2.39,9.73
6.1099997,1.84,1.41,5.26
6.1899996,-1.65,1.57,5.96
6.2799997,-1.57,2.82,5.84
6.37,-1.37,1.06,13.3
6.45,0.98,-2.86,10.08
6.54,-0.04,2.04,10.04
6.62,-0.08,1.33,8.12
6.71,0.59,2.12,5.41
6.8,0.63,4.0,6.79
6.88,1.18,1.77,12.0
6.9700003,4.63,-0.47,12.43
7.05,1.65,3.14,8.83
7.1400003,0.24,1.57,4.82
7.2300005,-0.2,1.06,7.22
7.3100004,-2.63,2.55,6.2
7.4000006,1.49,-0.27,10.55
7.4800005,1.02,-3.92,14.79
7.5700006,-0.63,-0.27,12.79
7.660001,0.04,0.71,6.94
7.7400007,-0.39,2.28,5.41
7.830001,-0.39,2.94,5.22
7.910001,-0.39,0.39,14.83
7.999999,4.67,-2.67,14.67
8.089999,0.98,2.79,9.14
8.169999,0.27,0.94,6.39
8.259999,-0.98,1.06,6.08
8.339999,-1.37,2.35,6.63
8.429999,-0.47,1.1,11.61
8.5199995,1.53,-4.08,13.38
8.599999,-0.31,3.14,11.3
8.69,-2.0,1.92,6.16
8.7699995,2.2,1.88,4.55
8.86,0.24,3.41,9.1
8.95,5.02,4.0,12.04
9.03,1.88,-0.94,9.14
9.12,1.88,1.1,10.12
9.2,0.04,2.55,5.37
9.29,-0.08,1.57,4.79
9.38,-1.06,-0.04,11.73
9.46,0.67,-0.47,13.1
9.55,3.41,1.06,13.42
9.63,0.47,1.57,5.73
9.72,2.24,1.88,4.12
9.81,-2.43,5.06,6.04
9.89,2.9,2.94,14.95
9.9800005,4.39,-4.86,14.83
10.06,1.84,3.49,9.02
10.150001,2.04,1.22,3.88
10.240001,-2.04,0.94,5.57
10.320001,-0.67,2.71,11.18
10.410001,0.71,1.06,14.16
10.490001,3.33,2.55,10.36
10.580001,-0.75,3.1,8.83
10.669999,0.31,2.67,5.06
10.749999,-0.2,3.33,4.08
10.839999,1.41,2.47,15.53
10.919999,5.73,-5.06,16.71
11.009999,1.06,3.02,8.55
11.099999,1.57,0.78,2.67
11.179999,-2.24,0.75,6.98
11.2699995,0.0,3.22,9.22
11.349999,-0.04,0.82,13.49
11.44,1.69,1.65,11.57
11.53,0.86,1.29,7.18
11.61,1.29,1.45,4.2
11.7,-1.84,4.39,5.73
11.78,3.18,1.53,16.95
11.87,3.61,-4.67,16.87
11.96,0.43,3.88,9.65
12.04,1.65,1.22,3.33
12.13,-2.28,1.41,6.39
12.21,0.2,4.2,7.49
12.3,-2.31,1.69,10.98
12.39,3.57,0.35,13.69
12.47,-0.47,2.43,8.08
12.56,2.24,1.41,4.08
12.64,-0.39,3.49,5.61
12.7300005,2.67,2.24,15.65
12.820001,4.43,-4.98,16.36
12.900001,1.61,3.26,9.61
12.990001,1.73,0.71,3.41
13.070001,-1.96,1.14,6.9
13.160001,-0.27,3.1,10.12
13.249999,-3.02,2.67,12.08
13.330001,3.45,0.43,10.08
13.419999,-0.59,2.75,8.83
13.499999,2.08,1.33,2.71
13.589999,0.35,2.82,4.12
13.679999,-0.43,5.92,7.49
13.759999,5.69,-4.9,16.63
13.849999,0.51,2.47,11.49
13.929999,1.02,2.2,2.9
14.0199995,-0.51,1.26,3.61
14.11,-0.31,3.77,9.69
14.19,-4.82,1.22,10.79
14.28,4.04,3.37,15.49
14.36,0.43,1.61,9.3
14.45,1.92,2.94,2.35
14.54,-0.2,5.53,4.75
14.62,2.94,4.24,16.08
14.71,5.14,-5.37,15.81
14.79,-2.94,3.06,11.14
14.88,2.28,1.22,2.9
14.97,-2.0,1.02,6.39
15.05,-2.43,1.65,10.59
15.14,0.39,2.12,13.57
15.22,2.94,1.29,13.02
15.31,-0.08,1.69,6.2
15.400001,2.39,2.63,4.24
15.4800005,-1.65,2.86,5.73
15.570001,2.28,1.49,15.42
15.650001,4.98,-5.37,16.12
15.740001,1.18,2.86,10.12
15.830001,1.22,1.02,2.08
15.910001,-1.88,0.75,6.63
15.999999,-0.59,1.61,6.75
16.080002,-1.06,2.12,11.57
16.169998,1.88,3.33,14.28
16.259998,0.27,1.69,8.12
16.34,0.31,1.57,2.75
16.43,0.31,3.26,6.0
16.510002,0.39,2.98,13.85
16.600002,4.55,-5.41,18.16
16.690002,0.98,1.45,11.1
16.77,3.18,1.92,4.0
16.86,-2.67,2.43,5.41
16.940002,-0.27,2.79,7.61
17.030003,-5.84,5.14,7.73
17.120003,3.33,3.1,13.77
17.2,0.24,2.98,9.45
17.29,0.0,1.45,3.22
17.370003,0.86,4.31,3.69
17.46,0.16,2.0,13.06
17.55,3.73,-1.26,15.77
17.630001,2.63,3.69,9.1
17.720001,1.69,0.9,4.04
17.8,-3.14,2.0,6.63
17.89,0.67,3.22,8.71
17.98,-3.61,1.45,11.26
18.060001,4.55,2.24,13.93
18.150002,-1.1,2.12,8.28
18.23,1.41,2.51,5.18
18.32,-0.94,2.55,3.37
18.41,2.35,2.43,12.43
18.490002,3.45,-4.12,16.67
18.580002,0.71,2.47,13.53
18.66,3.8,2.75,1.14
18.75,-3.22,1.22,6.67
18.84,0.16,3.65,6.12
18.920002,-3.73,3.02,11.38
19.010002,1.88,-3.45,13.57
19.09,-2.24,2.47,7.96
19.18,-2.0,2.28,2.16
19.27,3.37,3.02,4.12
19.350002,-2.75,0.63,9.34
19.440002,4.2,6.04,10.79
19.52,-0.27,-0.98,8.71
19.61,1.37,1.22,8.67
19.7,-1.02,1.33,5.41
19.780003,1.41,2.55,8.98
19.870003,0.31,0.51,10.4
19.95,4.79,-4.98,16.63
20.04,-2.86,2.71,11.14
20.130001,-0.16,0.51,3.3
20.21,0.51,3.06,5.57
20.3,2.94,2.39,10.94
20.380001,2.28,2.51,12.94
20.470001,1.1,3.37,12.32
20.560001,2.47,1.45,4.0
20.64,-2.47,1.77,7.06
20.73,0.31,0.63,7.85
20.810001,-3.57,2.94,10.87
20.900002,3.69,0.0,14.95
20.990002,-0.9,1.57,9.57
21.07,0.24,1.84,3.37
21.16,1.1,3.73,4.43
21.240002,0.9,2.0,9.49
21.330002,1.06,2.24,12.75
21.420002,1.61,3.53,11.45
21.5,3.33,0.98,6.04
21.59,-3.06,0.47,7.45
21.670002,-0.04,3.41,4.04
21.760002,-2.75,4.55,10.83
21.850002,3.41,-1.69,16.63
21.93,-1.33,3.02,10.9
22.02,-0.08,-0.2,4.39
22.100002,1.84,3.45,1.77
22.190002,1.45,2.55,11.49
22.280003,1.06,1.45,13.81
22.36,3.02,1.88,8.47
22.45,3.96,1.33,5.73
22.530003,-2.0,2.94,6.28
22.620003,-1.77,2.98,8.2
22.71,-0.98,3.14,12.55
22.79,5.1,-3.3,19.61
22.880001,-2.51,3.14,9.65
22.96,0.27,0.43,2.94
23.05,0.04,3.14,4.31
23.14,1.45,4.43,10.08
23.220001,3.02,-1.57,17.61
23.310001,0.98,1.88,12.0
23.39,3.3,1.84,1.84
23.48,-2.04,0.98,5.33
23.57,-1.49,4.39,7.14
23.650002,-3.73,0.86,13.26
23.740002,4.63,2.43,14.24
23.82,-0.86,2.94,9.34
23.91,-0.27,1.65,2.9
24.0,1.29,5.18,4.24
24.080002,4.04,1.53,16.16
24.170002,2.75,-6.24,18.55
24.25,-0.63,2.16,10.55
24.34,3.49,0.63,2.9
24.43,-2.51,3.22,4.75
24.510002,-1.22,3.1,10.79
24.600002,-0.67,2.35,13.53
24.68,0.47,1.06,10.47
24.77,-1.02,2.9,7.61
24.86,1.69,3.22,2.63
24.940002,-1.41,4.04,2.86
25.030003,6.04,4.47,12.08
25.11,4.71,-3.69,15.1
25.2,-1.22,2.55,9.3
25.29,0.51,0.82,4.86
25.370003,-1.65,1.22,6.71
25.46,-0.08,0.51,9.73
25.54,-0.67,0.12,15.02
25.630001,1.88,-0.35,12.55
25.720001,-0.12,0.94,4.71
25.8,1.88,2.08,3.3
25.89,-0.67,4.79,6.75
25.970001,2.71,4.12,13.53
26.060001,5.26,-5.61,15.61
26.150002,-0.16,1.14,11.1
26.23,0.63,2.0,2.24
26.32,-1.22,2.59,5.84
26.400002,0.12,5.18,6.24
26.490002,1.02,2.43,12.75
26.580002,0.12,3.69,13.02
26.66,1.1,3.33,8.32
26.75,1.65,2.24,2.94
26.830002,-0.51,4.04,3.8
26.920002,4.28,3.73,15.34
27.010002,7.1,-3.69,20.01
27.09,-0.27,1.26,12.16
27.18,1.53,0.86,2.12
27.260002,-2.67,2.47,5.92
27.350002,-3.3,4.94,9.61
27.440002,-1.84,4.63,10.71
27.52,3.14,2.94,13.93
27.61,-1.61,3.77,10.47
27.690002,1.84,-0.43,4.71
27.780003,-1.53,3.57,3.8
27.870003,2.75,3.96,12.91
27.95,-1.49,-0.59,11.89
28.04,1.37,3.14,8.98
28.120003,4.16,1.18,3.41
28.21,-2.63,1.61,6.55
28.3,-2.08,3.92,9.69
28.380001,-3.49,4.71,10.32
28.470001,2.86,-0.08,18.59
28.55,-0.59,2.79,6.63
28.64,2.2,1.84,3.69
28.73,-0.2,3.26,4.59
28.810001,3.96,4.63,11.69
28.900002,1.02,-1.29,11.34
28.98,-0.35,2.31,10.4
29.07,0.98,1.53,2.0
29.16,-2.12,3.69,5.41
29.240002,0.0,1.88,9.3
29.330002,2.51,-4.0,11.38
29.41,-1.1,2.08,10.98
29.5,-2.31,2.43,4.2
29.59,3.84,3.02,3.65
29.670002,3.77,2.86,8.04
29.760002,1.06,6.43,9.06
29.84,4.94,-2.82,12.32
29.93,1.61,2.55,9.18
30.02,-0.12,0.78,3.73
30.100002,0.08,2.71,6.2
30.190002,0.08,0.9,9.85
30.27,1.92,-2.2,11.41
30.36,-2.67,-0.12,14.51
30.45,-0.43,2.04,4.04
30.530003,1.92,1.22,4.16
30.620003,0.43,0.55,8.63
30.7,2.9,8.0,10.67
30.79,3.69,0.43,13.81
30.880001,0.08,-0.24,7.77
30.96,-1.96,1.65,5.22
31.05,-1.96,3.84,7.18
31.130001,-3.53,1.69,12.67
31.220001,3.84,-4.43,19.5
31.310001,-1.33,1.22,9.73
31.39,1.02,-0.63,3.45
31.48,0.94,3.18,4.71
31.560001,-0.12,1.45,11.14
31.650002,0.27,3.33,10.43
31.740002,2.47,0.43,12.83
31.82,-0.08,0.47,8.08
31.91,-1.57,0.71,6.59
31.990002,-0.98,1.96,6.9
32.08,-2.71,3.69,12.47
32.170002,6.63,-5.61,14.71
32.25,-0.67,3.14,10.59
32.34,-1.96,1.49,3.26
32.420002,1.65,3.53,2.2
32.510002,1.18,2.35,10.9
32.600002,2.35,6.47,8.51
32.68,1.1,0.47,12.67
32.77,1.61,-0.98,6.75
32.850002,-3.84,1.14,4.51
32.940002,0.47,3.69,6.0
33.030003,-5.77,3.45,11.92
33.11,4.28,4.67,7.73
33.2,0.0,1.06,9.3
33.280003,2.9,0.94,4.82
33.370003,-0.63,4.39,2.31
33.46,3.02,4.2,14.95
33.54,4.2,-7.53,19.1
33.63,3.41,2.71,7.49
33.71,2.47,0.59,3.02
33.8,-2.98,3.73,6.98
33.89,2.39,-0.24,12.47
33.97,-0.63,1.45,12.04
34.06,-0.98,1.49,11.45
34.14,1.96,1.02,5.45
34.23,1.61,2.82,3.1
34.32,-0.43,1.57,6.9
34.4,3.65,5.88,12.36
34.49,4.94,-5.3,14.4
34.57,0.12,1.45,8.71
34.66,1.22,0.39,2.67
34.75,-0.71,1.96,6.24
34.83,0.94,1.92,11.38
34.920002,2.24,3.06,12.36
35.0,-0.2,-0.2,16.44
35.09,-0.59,2.59,5.77
35.18,1.92,1.45,2.79
35.260002,-1.29,3.65,6.9
35.350002,4.16,4.08,12.28
35.43,4.79,-5.26,17.34
35.52,0.67,3.37,7.73
35.61,2.43,1.1,1.88
35.690002,-3.26,2.24,7.45
35.780003,0.24,1.57,11.77
35.86,-0.24,0.98,12.63
35.95,1.29,0.24,15.14
36.04,-0.12,3.49,5.1
36.120003,2.67,0.51,4.0
36.21,0.2,4.35,9.34
36.29,4.24,2.82,13.42
36.38,3.37,-5.02,17.1
36.47,1.45,2.12,8.43
36.55,2.31,1.61,3.73
36.64,-2.94,2.94,5.41
36.72,1.29,1.14,14.24
36.81,-0.9,-3.18,16.12
36.9,2.2,-0.27,9.22
36.98,-0.04,-0.12,4.04
37.07,3.26,2.82,4.35
37.15,-0.47,4.86,6.71
37.24,4.31,6.12,11.81
37.33,6.04,-3.84,14.36
37.41,2.59,2.31,7.81
37.5,0.9,1.06,2.59
37.58,-1.69,2.16,6.32
37.670002,0.08,1.57,14.2
37.760002,0.51,2.16,11.77
37.84,0.75,0.08,13.93
37.93,-1.14,2.59,5.45
38.010002,3.41,3.8,2.16
38.100002,-0.2,4.12,7.73
38.190002,4.31,6.63,10.94
38.27,4.0,0.24,6.2
38.36,0.24,1.73,9.26
38.440002,2.71,2.71,3.3
38.530003,-1.57,1.37,5.81
38.620003,1.88,2.2,14.55
38.7,-1.06,3.65,13.65
38.79,1.88,-1.33,11.45
38.870003,-1.37,1.45,5.22
38.96,0.63,1.84,4.47
39.05,1.02,3.26,9.77
39.13,4.12,6.9,12.2
39.22,2.63,-1.33,6.35
39.3,0.55,1.14,5.92
39.39,1.88,0.51,7.37
39.48,-2.16,2.55,6.2
39.56,1.61,0.67,12.55
39.65,-1.33,-0.71,13.45
39.73,1.29,-0.04,11.81
39.82,0.2,1.02,6.12
39.91,1.29,1.92,3.49
39.99,1.41,2.82,10.47
40.08,3.61,5.92,10.4
40.16,6.28,-3.69,13.14
40.25,2.35,1.8,8.87
40.34,2.04,0.2,5.06
40.420002,-1.96,1.61,6.79
40.510002,0.39,1.49,10.59
40.59,-3.92,4.16,12.28
40.68,3.69,-2.63,8.63
40.77,-0.94,2.43,8.79
40.850002,5.1,0.39,4.82
40.940002,3.14,3.18,5.69
41.02,1.53,2.0,13.34
41.11,1.45,0.94,11.85
41.2,-0.27,-0.75,7.34
41.280003,-0.35,1.65,5.33
41.370003,0.98,0.39,7.37
41.45,-1.77,1.06,7.92
41.54,-4.59,2.08,13.93
41.63,1.45,-5.65,11.34
41.71,0.63,1.33,9.85
41.8,-2.63,0.47,3.14
41.88,4.12,3.8,4.51
41.97,1.18,3.14,13.02
42.06,0.04,3.37,13.89
42.14,0.39,0.04,6.86
42.23,2.79,2.59,3.26
42.31,-0.63,1.18,5.84
42.4,-1.61,2.12,7.57
42.49,-1.26,4.67,12.87
42.57,1.33,-5.3,10.87
42.66,0.47,0.9,9.41
42.74,-1.45,1.06,4.55
42.83,3.3,1.96,5.96
42.920002,1.37,3.96,9.89
43.0,2.55,6.67,11.06
43.09,4.43,-0.86,8.79
43.170002,2.08,0.47,9.34
43.260002,1.73,1.18,4.24
43.350002,-2.43,1.8,7.41
43.43,0.16,2.43,6.86
43.52,-4.04,2.75,13.06
43.600002,2.55,-2.0,7.57
43.690002,-1.1,0.55,10.71
43.780003,0.0,1.26,4.08
43.86,2.63,2.08,5.88
43.95,1.84,3.33,11.14
44.030003,4.35,4.16,12.51
44.120003,0.86,0.0,5.1
44.21,2.04,0.35,7.77
44.29,0.94,1.73,6.16
44.38,-2.86,1.06,6.2
44.46,1.45,2.55,10.24
44.55,-1.53,2.35,13.73
44.64,0.67,-3.18,9.57
44.72,-1.02,1.41,8.43
44.81,-0.78,1.22,5.26
44.89,1.88,1.84,5.92
44.98,1.1,3.73,10.87
45.07,3.1,5.69,10.0
45.15,1.69,-2.16,10.16
45.24,3.02,3.18,1.96
45.32,1.37,-0.9,7.14
45.41,-1.06,1.18,6.94
45.5,0.67,2.71,11.57
45.58,-0.86,1.49,15.57
45.670002,3.61,-0.94,9.02
45.75,-0.98,2.28,6.24
45.84,-0.47,1.02,5.33
45.93,3.65,3.3,4.67
46.010002,1.61,3.41,12.59
46.100002,1.57,3.96,12.32
46.18,-0.04,-1.69,8.71
46.27,1.88,0.59,7.53
46.36,1.33,0.12,7.34
46.440002,-2.35,1.41,7.53
46.530003,1.77,1.96,9.38
46.61,-3.77,1.61,13.77
46.7,1.18,-3.3,7.49
46.79,-2.2,1.61,9.38
46.870003,-0.67,0.67,7.3
46.96,2.04,2.43,4.86
47.04,0.39,3.96,9.02
47.13,3.26,6.16,10.71
47.22,2.82,0.39,6.08
47.3,1.53,0.35,9.3
47.39,0.94,0.43,5.22
47.47,-1.69,0.86,6.98
47.56,0.16,1.57,7.37
47.65,-3.26,3.14,14.16
47.73,1.84,-2.98,8.51
47.82,-0.31,0.67,8.47
47.9,-0.31,1.37,5.3
47.99,1.33,2.94,4.16
48.08,1.73,2.51,12.32
48.16,2.31,2.63,12.43
48.25,0.04,0.55,9.61
48.33,1.29,1.29,6.79
48.42,-0.51,0.82,6.28
48.510002,-1.33,1.41,6.2
48.590004,2.04,0.39,13.85
48.68,-0.04,-4.08,13.3
48.760002,0.86,0.16,12.59
48.85,-0.98,0.08,7.02
48.940002,1.61,0.78,6.43
49.020004,1.73,2.75,6.32
49.11,1.88,5.02,13.69
49.190002,6.67,-0.55,12.83
49.28,0.31,0.27,11.02
49.370003,2.12,0.27,4.79
49.450005,-0.98,0.51,6.79
49.54,-0.55,1.33,5.61
49.620003,-1.57,4.47,12.75
49.71,-0.24,-5.22,12.43
49.800003,0.24,0.31,10.87
49.879997,-1.33,0.71,5.45
49.97,2.75,1.29,6.2
50.050003,0.75,4.08,5.41
50.14,1.77,3.77,13.3
50.230003,6.86,-1.06,11.81
50.309998,1.22,1.18,10.63
50.4,0.35,0.98,3.96
50.480003,-1.18,0.2,7.65
50.57,-1.53,1.41,6.71
50.660004,1.1,0.16,13.89
50.739998,-0.47,3.06,13.53
50.83,1.69,-1.96,9.73
50.910004,-1.22,0.82,6.43
51.0,-0.59,1.69,6.51
51.090004,1.57,2.47,4.94
51.17,1.8,3.77,11.22
51.260002,2.47,6.79,10.4
51.340004,3.49,-0.2,8.08
51.43,2.75,-0.12,10.63
51.520004,0.98,-0.27,4.79
51.6,-1.65,0.16,8.32
51.690002,0.2,2.39,6.94
51.770004,-1.84,3.8,12.63
51.86,-0.82,-3.22,12.67
51.950005,-0.39,2.12,9.81
52.03,0.08,1.65,5.53
52.120003,2.71,1.61,6.12
52.200005,0.75,3.06,6.16
52.29,2.55,3.26,13.73
52.379997,5.53,0.75,9.77
52.46,0.31,0.2,11.22
52.550003,1.8,0.78,5.06
52.629997,-0.86,1.33,6.55
52.72,-2.04,2.59,6.75
52.809998,-0.12,2.16,14.24
52.89,-1.22,-0.12,12.36
52.980003,1.92,0.27,10.75
53.059998,-0.08,1.53,6.83
53.15,1.29,2.24,6.12
53.239998,0.78,3.65,6.32
53.32,1.14,4.31,10.55
53.410004,2.31,0.51,13.18
53.489998,2.04,-0.12,10.12
53.58,0.63,-0.12,7.14
53.67,0.39,1.53,5.37
53.75,-2.67,2.08,6.67
53.840004,1.26,1.33,12.55
53.92,-1.84,-0.39,13.06
54.010002,1.88,-0.35,12.75
54.1,0.04,1.37,6.08
54.18,2.12,2.31,5.53
54.270004,1.06,4.55,3.84
54.35,1.61,2.75,12.2
54.440002,2.28,0.12,13.65
54.53,0.35,-0.16,8.36
54.61,1.77,0.63,6.94
54.700005,-1.06,1.96,6.04
54.78,-1.1,1.1,6.55
54.870003,1.37,1.18,12.79
54.96,-1.26,4.43,13.77
55.04,1.1,-0.55,10.83
55.129997,-0.67,1.69,7.41
55.21,-0.04,1.41,5.18
55.300003,2.04,2.43,5.06
55.39,2.16,2.94,10.63
55.47,1.69,5.3,11.65
55.559998,1.77,-0.9,7.14
55.64,2.63,1.88,7.61
55.730003,0.59,1.61,5.92
55.82,-1.37,1.41,7.1
55.9,0.9,2.55,8.67
55.989998,-3.22,3.65,12.24
56.07,2.16,-3.8,9.1
56.160004,-0.2,1.41,11.3
56.25,-0.86,0.12,4.71
56.33,3.53,2.55,6.0
56.42,0.9,3.65,7.49
56.5,2.79,6.04,10.79
56.590004,6.12,-1.14,11.77
56.68,2.16,0.51,9.69
56.760002,0.86,1.06,4.67
56.85,-1.49,1.57,7.22
56.93,-0.94,2.24,5.65
57.020004,1.77,0.31,12.24
57.11,-1.22,0.43,13.06
57.190002,0.75,-0.9,10.83
57.28,0.24,1.61,6.63
57.36,-0.31,1.92,5.45
57.450005,2.28,3.88,4.82
57.54,1.69,2.35,12.28
57.620003,2.24,5.53,13.3
57.71,-0.12,-1.45,7.22
57.79,2.55,1.8,6.35
57.879997,1.53,1.02,6.59
57.97,-1.57,1.29,7.14
58.050003,-0.16,3.57,8.55
58.14,-3.65,4.2,11.96
58.22,-0.12,-2.16,10.32
58.309998,0.16,0.78,11.1
58.4,-0.71,1.61,5.77
58.480003,4.2,2.2,5.84
58.57,0.08,3.57,6.75
58.65,2.35,4.35,12.94
58.739998,5.77,-0.31,12.0
58.83,2.31,0.39,9.73
58.910004,0.24,0.78,4.55
59.0,-0.71,0.55,8.43
59.08,-0.9,2.24,6.59
59.17,-1.61,3.14,13.89
59.260002,0.16,-3.65,13.53
59.340004,1.18,1.1,11.1
59.43,-2.24,1.33,5.88
59.510002,2.24,1.45,5.96
59.6,1.57,3.88,5.96
59.690002,1.65,3.14,12.55
59.770004,7.45,-2.16,14.87
59.86,0.39,0.67,7.96
59.940002,0.78,-0.16,6.67
60.03,-1.1,1.1,7.26
60.120003,-2.98,1.92,6.35
60.200005,-2.08,0.78,15.26
60.29,-0.55,-0.27,15.65
60.370003,2.2,-0.08,10.32
60.46,-1.73,0.2,6.28
60.550003,0.71,1.06,5.3
60.629997,1.57,4.43,4.94
60.72,4.0,2.35,13.22
60.800003,0.31,1.96,14.67
60.89,0.0,-1.45,6.75
60.980003,1.92,1.77,5.02
61.059998,0.27,-0.78,7.57
61.15,-1.29,0.78,7.1
61.230003,-0.04,2.67,12.12
61.32,-2.24,2.59,12.79
61.410004,1.26,-1.92,8.75
61.489998,0.0,0.75,9.26
61.58,-0.71,1.22,4.04
61.660004,1.8,2.59,6.24
61.75,1.53,3.45,8.28
61.840004,1.77,5.3,10.55
61.92,7.77,-2.75,12.75
62.010002,2.0,1.22,9.61
62.090004,1.26,0.16,5.33
62.18,-1.37,0.2,7.53
62.270004,-2.24,2.86,6.35
62.35,2.94,0.63,12.87
62.440002,-2.67,1.92,12.36
62.520004,0.31,-0.43,10.71
62.61,0.24,-0.35,7.37
62.700005,0.47,1.41,5.73
62.78,2.16,2.98,5.49
62.870003,0.31,3.53,11.81
62.950005,3.37,2.94,15.22
63.04,0.51,-0.94,5.81
63.129997,0.2,1.14,6.2
63.21,1.1,-0.39,7.96
63.300003,-2.31,0.71,6.39
63.379997,1.96,0.39,13.34
63.47,0.59,1.1,14.4
63.559998,0.0,-1.88,10.83
63.64,0.67,-0.59,5.88
63.730003,0.04,0.35,5.1
63.809998,1.8,3.45,4.24
63.9,0.47,3.8,13.1
63.989998,4.79,-2.94,14.55
64.07,1.69,0.71,9.3
64.16,-0.08,-0.24,5.37
64.24,-0.55,1.33,7.26
64.33,-1.14,1.18,6.63
64.42,1.26,2.75,12.67
64.5,-0.82,-5.02,14.24
64.590004,2.08,-0.2,10.16
64.67,-0.94,1.8,4.9
64.76,2.12,1.69,4.08
64.85,1.57,3.06,6.43
64.93,1.77,4.86,14.36
65.020004,7.88,-2.67,10.83
65.1,0.55,0.51,8.36
65.19,1.61,-1.02,5.61
65.28,-1.1,0.78,6.9
65.36,-1.18,1.65,6.16
65.450005,-1.45,3.96,13.45
65.53,-1.06,-5.45,12.32
65.62,1.57,0.35,10.4
65.71,-1.1,1.61,4.43
65.79,2.59,0.98,4.75
65.88,0.71,3.77,10.12
65.96,4.35,6.51,10.94
66.05,3.18,-0.86,8.79
66.14,1.18,0.78,8.63
66.22,1.92,0.16,5.73
66.31,-1.73,1.26,6.35
66.39,1.06,1.22,8.87
66.48,-4.12,3.69,10.87
66.57,4.0,-2.35,10.47
66.65,-0.86,1.02,6.94
66.74,-0.82,0.9,4.67
66.82,3.22,1.88,4.08
66.91,-0.08,2.08,11.92
67.0,4.2,3.73,12.51
67.08,1.96,-1.37,6.86
67.17,0.75,0.39,5.73
67.25,0.51,-0.27,6.16
67.340004,-1.84,1.33,7.14
67.43,2.51,0.75,13.06
67.51,-1.18,2.55,13.34
67.6,3.73,-0.9,13.77
67.68,0.67,0.55,6.24
67.770004,3.53,2.2,5.53
67.86,1.65,4.35,4.59
67.94,2.28,3.57,15.81
68.03,6.98,-0.67,12.24
68.11,0.04,0.43,10.55
68.200005,0.51,-0.16,5.73
68.29,0.04,0.24,5.77
68.37,0.08,0.94,8.63
68.46,-2.82,4.63,12.79
68.54,1.96,-2.82,9.96
68.63,0.47,0.71,8.24
68.72,-0.35,1.1,3.77
68.8,1.96,2.79,4.75
68.89,-0.98,2.08,10.83
68.97,3.53,0.31,13.42
69.06,0.47,-0.59,9.18
69.15,1.14,-0.75,6.28
69.23,1.45,0.63,6.04
69.32,-1.41,1.14,7.77
69.4,-1.37,1.53,12.98
69.49,0.16,-2.98,11.49
69.58,0.9,-0.12,11.89
69.66,1.14,-0.04,6.79
69.75,1.45,0.98,4.28
69.83,1.77,3.45,8.32
69.92,1.14,4.75,13.38
70.01,7.49,-2.67,13.1
70.090004,1.92,1.77,8.9
70.18,0.0,-0.31,4.79
70.26,0.78,1.53,6.12
70.35,-0.98,1.22,8.04
70.44,-4.2,4.75,10.71
70.520004,0.55,-5.18,14.36
70.61,-1.06,1.26,10.2
70.69,-1.26,0.39,2.08
70.78,4.31,2.08,5.06
70.87,0.59,3.61,12.79
70.950005,5.02,6.67,7.1
71.04,1.49,-1.37,10.98
71.12,0.39,0.75,7.65
71.21,1.61,1.61,4.63
71.3,-1.92,-0.51,7.96
71.38,0.0,3.18,11.73
71.47,0.12,3.92,10.32
71.55,3.61,-1.61,10.75
71.64,-0.59,0.78,5.92
71.73,-1.06,1.14,5.33
71.81,0.67,3.61,4.94
71.9,0.78,2.9,12.4
71.98,1.26,2.0,14.2
72.07,1.26,-1.57,8.83
72.16,0.63,0.55,6.08
72.24,0.71,1.49,6.35
72.33,-2.35,0.67,8.71
72.41,2.0,1.33,13.26
72.5,-0.31,2.16,15.57
72.590004,0.94,-1.33,9.92
72.67,-0.82,0.43,7.41
72.76,-0.12,1.57,5.02
72.840004,1.73,3.3,5.73
72.93,-0.75,3.3,12.4
73.020004,7.81,-3.18,14.28
73.1,-1.69,0.75,8.55
73.19,0.16,0.75,5.45
73.270004,-0.71,1.22,6.12
73.36,-0.9,0.98,7.18
73.450005,-1.53,4.59,11.69
73.53,1.22,-5.69,12.98
73.62,-2.24,-0.9,14.28
73.700005,0.94,2.51,4.28
73.79,2.16,0.82,6.28
73.88,1.41,4.16,8.9
73.96,4.55,4.71,12.08
74.05,0.75,0.59,7.14
74.13,2.12,0.82,10.47
74.22,0.24,0.98,5.61
74.31,-1.29,0.82,6.24
74.39,0.86,1.29,11.38
74.48,-1.1,1.02,13.85
74.56,2.59,-0.39,8.94
74.65,0.71,1.8,6.83
74.74,0.0,1.69,4.2
74.82,1.8,2.67,4.86
74.91,-0.12,3.65,11.38
74.99,2.47,4.67,11.26
75.08,-0.86,-0.94,9.53
75.17,2.0,1.57,6.71
75.25,1.49,1.14,5.37
75.340004,-2.24,2.2,7.45
75.42,-1.41,-2.08,12.91
75.51,-0.78,-0.63,14.63
75.6,1.92,0.86,11.92
75.68,1.06,2.16,4.71
75.770004,1.33,0.86,5.92
75.85,1.29,3.77,6.98
75.94,1.92,3.1,14.59
76.03,5.57,-1.69,12.75
76.11,0.63,1.26,8.39
76.200005,0.86,-0.12,8.08
76.28,-1.84,0.59,5.81
76.37,-2.12,2.28,6.51
76.46,-1.29,2.51,12.24
76.54,1.22,-5.41,11.77
76.63,0.94,0.59,12.04
76.71,-1.45,0.24,4.08
76.8,3.14,1.69,6.04
76.89,0.35,4.75,9.65
76.97,5.02,5.3,11.3
77.06,5.14,-2.43,12.83
77.14,1.18,0.82,7.92
77.23,2.43,1.41,3.8
77.32,-1.96,1.1,6.51
77.4,0.31,2.55,8.71
77.49,-2.79,4.16,12.87
77.57,3.65,-2.47,9.38
77.66,-1.73,0.98,7.65
77.75,0.67,1.29,3.61
77.83,2.39,2.79,6.2
77.92,-0.24,2.51,10.59
78.0,3.18,2.43,11.53
78.090004,1.53,-0.55,9.41
78.18,-0.51,-0.51,6.55
78.26,-0.82,0.55,5.14
78.35,-1.65,2.04,7.92
78.43,-3.14,2.79,11.02
78.520004,3.3,-4.31,12.94
78.61,-0.9,-0.9,12.32
78.69,-1.69,1.06,4.75
78.78,3.45,2.51,4.04
78.86,1.06,4.43,11.1
78.950005,4.12,5.92,8.32
79.04,2.79,-3.02,12.16
79.12,1.37,1.8,6.83
79.21,1.14,1.14,5.41
79.29,-1.77,1.57,6.67
79.38,0.2,2.2,11.38
79.47,-2.08,4.04,9.96
79.55,3.73,-2.24,10.63
79.64,-2.47,1.29,7.26
79.72,0.47,1.88,4.86
79.81,0.9,3.53,5.88
79.9,0.55,3.45,9.85
79.98,2.51,-0.39,15.69
80.07,-0.08,-0.39,10.08
80.15,0.47,1.02,5.96
80.24,-1.33,1.33,5.73
80.33,-1.57,3.02,6.71
80.41,-2.43,2.39,11.92
80.5,-0.27,-3.69,11.22
80.58,0.16,0.55,10.16
80.67,0.24,1.29,3.41
80.76,0.9,1.88,4.47
80.840004,3.1,2.2,9.1
80.93,3.3,4.75,8.16
81.01,1.06,-2.08,8.79
81.1,2.24,2.2,6.12
81.19,0.47,0.47,5.06
81.270004,-1.45,1.77,6.59
81.36,1.02,2.08,11.85
81.44,0.55,2.2,12.91
81.53,3.22,1.02,12.12
81.62,-0.31,2.04,5.1
81.700005,0.35,2.55,3.45
81.79,1.29,4.24,6.12
81.87,0.71,3.73,12.47
81.96,4.12,-1.96,12.83
82.05,1.37,0.9,10.55
82.13,0.39,0.78,5.73
82.22,-2.28,1.65,6.86
82.3,-1.26,3.37,6.16
82.39,-2.59,3.69,13.38
82.48,2.39,-4.24,12.47
82.56,0.39,2.08,11.1
82.65,-2.43,1.61,3.61
82.73,3.45,2.51,4.2
82.82,0.27,3.69,10.63
82.91,4.35,5.77,10.51
82.99,2.28,-0.2,8.39
83.08,1.73,2.0,6.28
83.16,1.14,0.78,5.3
83.25,-2.67,1.45,6.83
83.340004,0.9,1.65,12.94
83.42,-2.12,-0.75,14.47
83.51,6.08,1.73,9.41
83.590004,-0.94,2.24,6.08
83.68,1.61,1.57,6.39
83.770004,1.1,4.04,4.0
83.85,2.71,3.84,10.59
83.94,1.06,3.96,9.92
84.020004,-1.73,-0.35,8.04
84.11,0.98,0.9,8.9
84.200005,-1.41,-0.39,5.14
84.28,-2.47,3.88,6.04
84.37,0.63,-2.35,12.71
84.450005,0.78,-8.28,11.49
84.54,-0.16,-0.43,13.1
84.63,-0.39,0.86,3.73
84.71,2.59,2.43,4.51
84.8,-0.16,6.12,9.06
84.88,4.0,6.79,8.79
84.97,3.41,-1.65,12.4
85.06,2.2,0.94,8.43
85.14,0.94,0.27,5.1
85.23,-2.59,1.73,6.98
85.31,0.55,2.43,11.57
85.4,-3.14,2.86,11.65
85.49,4.08,-0.78,9.38
85.57,-1.41,2.86,6.71
85.66,0.31,0.94,5.3
85.74,1.06,3.88,4.98
85.83,1.77,0.27,12.12
85.92,-0.2,2.28,11.92
86.0,-0.16,-1.61,9.49
86.090004,1.45,1.1,8.87
86.17,0.04,-0.82,6.04
86.26,-1.45,2.63,6.63
86.35,-0.35,0.39,11.1
86.43,0.04,1.73,12.32
86.520004,1.02,0.35,14.24
86.6,-0.24,2.35,6.32
86.69,2.43,2.55,4.75
86.78,0.39,4.2,7.53
86.86,1.96,4.08,13.18
86.950005,5.49,-3.88,14.28
87.03,1.65,1.41,9.57
87.12,0.78,1.41,4.0
87.21,-1.02,1.61,6.0
87.29,-0.16,2.12,8.08
87.38,-3.77,3.37,10.94
87.46,2.31,-5.26,13.22
87.55,-1.45,0.12,11.22
87.64,-1.57,1.49,2.82
87.72,3.33,2.98,5.45
87.81,-0.78,3.18,9.41
87.89,4.16,5.06,9.18
87.98,-0.75,-1.22,10.32
88.07,2.47,-0.08,9.65
88.15,-0.12,1.49,5.84
88.24,-1.69,1.26,7.14
88.32,1.33,0.71,12.79
88.41,-0.94,1.45,12.55
88.5,1.14,-0.59,12.87
88.58,1.1,2.31,6.47
88.67,1.37,0.82,4.43
88.75,1.53,4.28,5.88
88.840004,0.43,2.39,9.77
88.93,2.86,-2.63,14.71
89.01,0.12,2.35,9.73
89.1,1.84,1.02,5.3
89.18,-1.61,0.27,6.47
89.270004,-0.67,3.65,6.28
89.36,-3.06,3.96,11.49
89.44,-0.75,-6.2,12.36
89.53,1.06,1.41,10.67
89.61,0.04,4.28,3.57
89.700005,2.43,2.47,4.94
89.79,1.45,3.06,11.18
89.87,4.04,7.53,9.49
89.96,2.51,-2.24,10.0
90.04,0.59,0.86,8.16
90.13,1.92,0.63,4.79
90.22,-2.12,1.84,6.63
90.3,-0.12,0.55,12.83
90.39,1.84,3.02,11.45
90.47,3.53,-2.28,11.06
90.56,-2.12,1.77,7.73
90.65,0.51,1.65,6.04
90.73,1.88,3.22,5.18
90.82,2.43,1.06,10.12
90.9,1.61,8.0,8.16
90.99,1.45,-4.0,9.96
91.08,1.61,1.69,7.37
91.16,2.16,0.16,7.65
91.25,-1.69,1.14,7.22
91.33,-0.43,3.45,9.73
91.42,-0.86,0.55,14.12
91.51,2.55,-4.43,7.34
91.590004,-0.78,1.45,9.49
91.68,-1.26,1.26,5.73
91.76,2.67,2.47,5.69
91.85,0.94,3.45,9.96
91.94,4.39,7.02,8.63
92.020004,2.82,-3.14,10.55
92.11,1.14,1.65,8.63
92.19,1.69,1.49,5.18
92.28,-2.2,1.8,6.28
92.37,0.43,2.28,7.22
92.450005,-4.2,2.63,12.43
92.54,-1.88,-3.92,9.73
92.62,0.12,1.06,10.51
92.71,-1.29,0.24,6.86
92.8,1.8,0.94,7.02
92.88,1.02,4.04,10.08
92.97,4.9,4.82,10.63
93.05,2.12,-3.49,9.77
93.14,1.92,0.78,9.3
93.23,0.75,0.16,5.18
93.31,-1.57,1.49,6.24
93.4,0.86,1.33,10.63
93.48,-2.35,3.8,11.1
93.57,3.88,-4.75,10.2
93.66,-0.9,1.41,8.04
93.74,-1.06,2.2,4.79
93.83,1.8,3.3,5.02
93.91,0.98,2.98,10.04
94.0,2.16,6.83,8.24
94.090004,0.12,-2.55,11.14
94.17,0.67,1.29,7.57
94.26,1.1,1.06,4.08
94.340004,-0.55,2.51,8.24
94.43,-0.86,1.49,11.92
94.520004,-0.59,-8.43,11.89
94.6,0.82,0.78,11.49
94.69,-0.86,1.92,3.8
94.770004,2.75,2.04,6.12
94.86,-0.04,3.41,8.87
94.950005,4.51,8.04,9.89
95.03,-0.63,-0.51,7.22
95.12,2.43,0.9,6.71
95.200005,1.06,2.28,4.82
95.29,-1.26,2.08,6.47
95.38,-0.16,1.41,11.92
95.46,-0.31,1.14,11.81
95.55,3.33,1.1,10.94
95.63,-2.0,2.04,8.59
95.72,0.82,2.31,4.63
95.81,1.57,3.26,5.73
95.89,0.16,-0.08,10.24
95.98,2.86,-0.47,14.08
96.06,0.12,0.2,8.16
96.15,0.9,0.9,7.37
96.24,-0.75,0.78,7.92
96.32,-0.47,0.43,7.53
96.41,-0.59,-0.08,11.06
96.49,-1.26,0.2,11.53
96.58,3.33,-0.86,14.28
96.67,-0.27,0.67,7.41
96.75,2.71,1.73,5.22
96.840004,1.1,3.06,6.79
96.92,1.14,3.77,13.14
97.01,4.04,-2.16,13.38
97.1,-1.45,1.18,8.9
97.18,1.26,0.67,4.79
97.270004,-0.16,1.02,5.53
97.35,-2.28,2.08,7.26
97.44,-0.63,0.75,12.51
97.53,-1.41,-5.61,11.89
97.61,1.33,0.31,11.14
97.700005,0.75,-0.04,6.2
97.78,1.61,2.82,3.69
97.87,1.41,3.37,9.22
97.96,3.22,7.65,9.81
98.04,3.33,-3.49,10.98
98.13,1.29,0.9,6.67
98.21,0.67,1.33,7.02
98.3,-1.69,2.04,6.35
98.39,0.16,2.47,9.45
98.47,0.04,1.53,12.12
98.56,1.84,0.04,10.51
98.64,-0.24,0.71,8.28
98.73,1.29,1.41,4.24
98.82,1.37,3.18,6.12
98.9,-1.18,2.9,10.63
98.99,1.29,1.77,12.75
99.07,0.24,-2.47,9.89
99.16,1.33,0.78,8.79
99.25,-0.82,2.59,6.2
99.33,-1.65,2.75,6.51
99.42,0.43,-0.43,11.38
99.5,-1.22,-0.67,14.87
99.590004,2.16,-0.24,12.4
99.68,-1.02,1.77,5.65
99.76,1.41,2.39,4.59
99.85,0.35,4.12,7.22
99.93,2.31,3.22,13.53
100.020004,5.92,-3.3,13.34
100.11,0.2,0.04,9.38
100.19,1.26,1.33,3.96
100.28,-2.12,0.86,6.35
100.36,-0.9,1.61,7.34
100.450005,-3.37,1.37,12.47
100.54,1.41,-5.53,12.0
100.62,-0.47,1.1,8.94
100.71,-1.77,0.55,5.1
100.79,3.3,1.92,5.77
100.88,0.55,2.94,10.2
100.97,2.47,6.28,9.14
101.05,4.08,-4.2,10.51
101.14,1.1,0.35,8.28
101.22,1.26,1.26,4.47
101.31,-2.63,0.63,6.67
101.4,0.82,1.41,8.71
101.48,-4.0,2.51,11.22
101.57,1.92,-4.0,8.75
101.65,-0.59,1.65,9.89
101.74,-1.02,-0.16,6.08
101.83,2.94,3.18,4.75
101.91,1.26,3.06,10.51
102.0,3.45,6.12,8.83
102.08,1.65,-3.84,10.4
102.17,1.53,0.9,7.73
102.26,1.45,-0.12,6.47
102.340004,-2.43,1.26,5.92
102.43,0.75,3.96,6.86
102.51,-3.3,2.51,11.61
102.6,2.55,-4.98,8.79
102.69,-1.53,2.67,8.0
102.770004,-1.37,1.41,4.75
102.86,1.69,3.45,3.84
102.94,1.14,3.73,10.08
103.03,1.61,5.77,9.96
103.12,2.04,-2.12,8.67
103.200005,2.39,1.84,7.1
103.29,1.02,-0.39,6.67
103.37,-1.53,1.69,6.63
103.46,-0.78,5.18,9.1
103.55,-3.77,2.86,11.85
103.63,5.77,0.27,9.96
103.72,-0.31,2.51,7.22
103.8,-1.45,0.82,5.57
103.89,2.08,2.82,4.71
103.98,2.71,1.65,10.83
104.06,2.94,6.86,8.36
104.15,1.33,-2.08,8.71
104.23,1.92,1.02,7.88
104.32,0.9,0.94,5.77
104.41,-2.63,2.31,6.67
104.49,1.1,4.28,8.12
104.58,-3.53,3.41,12.08
104.66,3.33,-3.77,10.2
104.75,-0.27,3.02,7.18
104.840004,-1.84,1.61,4.24
104.92,2.35,3.1,5.14
105.01,1.49,3.65,10.16
105.090004,1.69,4.86,9.85
105.18,0.04,-1.57,8.32
105.270004,0.51,1.84,8.51
105.35,2.43,1.26,6.67
105.44,-2.79,2.31,7.3
105.520004,1.41,0.71,13.69
105.61,0.59,3.69,13.61
105.700005,3.14,-0.39,11.92
105.78,-0.35,1.53,5.69
105.87,1.18,1.69,5.77
105.950005,0.63,4.04,6.59
106.04,1.84,3.8,15.85
106.13,6.71,-4.43,13.73
106.21,1.57,0.35,10.4
106.3,0.94,1.33,2.0
106.38,-1.73,2.63,7.65
106.47,-0.55,2.63,9.14
106.56,-2.67,1.41,11.06
106.64,3.69,-3.96,10.98
106.73,-1.37,2.24,8.43
106.81,1.37,0.67,2.75
106.9,2.28,3.02,3.53
106.99,0.39,0.27,12.47
107.07,2.75,2.98,13.45
107.16,0.39,-2.35,8.63
107.24,-0.9,0.78,7.3
107.33,0.12,-0.43,6.59
107.42,-1.61,1.41,7.3
107.5,0.2,-0.39,13.22
107.590004,-3.22,-5.81,11.53
107.67,3.22,0.31,12.12
107.76,-1.18,1.33,4.47
107.85,2.71,2.55,4.2
107.93,2.24,2.55,8.87
108.020004,1.29,6.08,10.16
108.1,6.32,-3.14,9.53
108.19,-0.27,0.75,6.43
108.28,1.45,1.61,4.82
108.36,-1.61,2.08,6.79
108.450005,0.75,0.27,12.36
108.53,-1.22,2.55,14.87
108.62,2.43,-0.39,13.53
108.71,-1.53,-0.47,5.1
108.79,2.79,1.41,3.57
108.88,-0.16,4.35,8.51
108.96,4.35,3.41,13.14
109.05,4.75,-4.63,13.45
109.14,-0.31,0.24,9.26
109.22,1.61,2.0,2.71
109.31,-1.53,-2.63,8.9
109.39,1.65,2.55,12.0
109.48,0.86,2.82,13.42
109.57,2.31,-2.16,12.36
109.65,-0.08,2.16,7.26
109.74,-0.47,1.65,3.53
109.82,2.31,2.59,6.12
109.91,2.71,1.53,10.9
110.0,0.35,5.02,10.04
110.08,0.59,-3.06,8.71
110.17,1.14,0.55,6.55
110.25,0.47,0.43,6.63
110.340004,-2.67,1.88,7.14
110.43,0.12,2.12,10.98
110.51,-1.33,0.31,13.69
110.6,2.28,-0.55,9.45
110.68,-1.41,1.69,7.41
110.770004,0.31,1.33,5.61
110.86,2.24,3.26,4.98
110.94,2.82,0.47,10.51
111.03,1.41,4.59,10.43
111.11,-0.2,-2.2,8.71
111.200005,1.84,2.82,5.14
111.29,-0.39,0.9,4.59
111.37,-0.59,1.45,6.98
111.46,0.63,1.73,10.98
111.54,-2.71,2.39,11.26
111.63,3.8,-2.31,9.96
111.72,-0.63,2.59,7.85
111.8,-0.67,2.59,6.12
111.89,1.8,3.06,6.28
111.97,-0.24,4.39,7.53
112.06,2.12,4.59,9.57
112.15,6.24,-0.2,10.55
112.23,1.45,-1.22,12.16
112.32,1.37,0.43,7.22
112.4,-0.55,1.53,7.73
112.49,-1.41,2.2,6.51
112.579994,-0.16,-2.47,11.06
112.659996,-1.22,0.55,14.79
112.75001,3.37,0.39,10.9
112.829994,0.35,2.0,6.47
112.920006,1.45,1.49,6.71
113.01,1.14,2.79,6.9
113.090004,2.28,2.67,11.38
113.18,2.0,4.9,10.55
113.26,-0.67,-0.08,5.1
113.35,1.84,0.94,8.24
113.439995,1.65,-0.47,7.37
113.52,-1.37,1.26,7.81
113.61001,-0.43,3.49,6.83
113.689995,-2.55,2.0,11.61
113.78001,1.1,-4.28,10.87
113.87,0.24,1.18,10.2
113.950005,-0.86,0.75,6.43
114.04,2.47,2.63,5.92
114.12,-0.04,3.73,7.22
114.21,1.77,4.43,12.71
114.299995,7.77,-2.9,12.79
114.38,1.18,1.49,9.85
114.46999,1.49,1.65,5.1
114.549995,-1.02,1.41,6.0
114.64001,-0.55,2.28,7.26
114.73,0.59,-0.51,11.41
114.810005,0.43,2.98,13.96
114.9,1.22,-0.98,12.24
114.98,1.41,-0.59,5.14
115.07,1.18,2.35,4.51
115.159996,0.9,2.94,7.49
115.24,0.39,1.84,10.16
115.329994,1.69,2.59,12.24
115.409996,-1.1,-1.96,9.26
115.50001,1.73,0.16,8.83
115.590004,0.35,0.86,6.39
115.670006,-1.84,1.92,7.06
115.76,0.78,1.84,10.87
115.840004,-0.39,1.57,14.0
115.93,2.67,-3.26,9.14
116.02,-0.27,0.67,7.96
116.1,-0.55,1.45,5.06
116.189995,1.96,2.08,5.1
116.27,1.29,1.65,11.81
116.36001,2.2,4.63,9.53
116.450005,0.98,-3.57,8.9
116.53001,2.51,0.82,6.47
116.62,0.78,-0.63,6.9
116.700005,-2.31,1.1,7.3
116.79,0.47,2.75,9.65
116.88,-1.1,1.53,11.53
116.96,2.16,-0.82,10.4
117.049995,-1.37,1.73,7.81
117.13,0.12,0.51,5.49
117.21999,1.29,2.75,5.77
117.310005,0.82,0.98,9.57
117.39001,1.22,4.2,10.63
117.48,0.9,-3.06,9.69
117.560005,1.84,0.75,6.94
117.65,0.16,1.26,5.81
117.74,-2.0,2.08,6.47
117.82,-1.1,1.02,13.1
117.909996,0.86,2.24,12.51
117.99,1.33,-1.06,11.73
118.079994,-0.24,1.65,7.88
118.170006,1.33,0.98,5.69
118.25001,0.86,3.37,5.37
118.340004,0.51,1.73,12.2
118.420006,3.92,-2.0,15.14
118.51,-0.43,-0.75,9.38
118.6,0.86,0.39,8.36
118.68,-0.75,1.57,6.79
118.77,-0.78,1.88,4.82
118.85,-1.61,0.47,12.71
118.939995,-0.24,-6.51,15.61
119.03001,0.43,-0.86,11.06
119.11001,-0.16,0.39,4.16
119.200005,2.79,1.02,6.32
119.28001,-1.02,4.04,7.02
119.37,2.0,2.0,13.06
119.46,6.08,-3.37,12.08
119.54,-0.12,-0.35,11.18
119.63,1.22,0.24,5.88
119.71,-1.96,-0.04,6.9
119.799995,-2.2,1.8,7.37
119.89001,-3.61,0.08,13.57
119.96999,0.12,-5.3,8.67
120.060005,0.75,1.84,10.04
120.14001,-1.53,-0.2,3.65
120.23,2.63,2.59,6.43
120.32,1.06,2.04,11.85
120.4,1.41,5.77,8.28
120.49,1.29,-2.79,9.41
120.57,0.9,-0.78,9.3
120.659996,0.16,-0.86,7.02
120.75001,-2.35,2.75,5.69
120.829994,0.35,-0.31,10.94
120.920006,0.75,0.59,12.47
121.00001,2.67,-1.41,13.38
121.090004,-1.41,1.18,5.33
121.18,1.69,1.22,4.79
121.26,-0.16,2.71,8.55
121.35,2.12,2.35,14.16
121.43,6.08,-5.92,16.67
121.52,-0.43,-1.06,7.81
121.61001,1.69,0.67,3.45
121.689995,-0.98,0.39,5.45
121.78001,-0.47,1.45,7.92
121.86001,-3.88,1.22,11.14
121.950005,2.94,-5.69,10.43
122.04,-0.71,0.43,8.16
122.12,0.59,0.67,3.77
122.21,1.57,2.35,4.67
122.29,-0.04,0.2,13.81
122.38,2.75,0.71,14.24
122.46999,-0.24,-1.77,8.2
122.549995,1.18,-0.31,7.73
122.64001,-0.63,0.27,6.71
122.71999,-2.82,1.65,6.16
122.810005,-1.22,-0.98,11.38
122.9,1.06,-8.75,11.41
122.98,2.16,-1.18,12.32
123.07,-1.61,0.27,3.53
123.15,2.35,1.33,4.79
123.24,0.82,1.02,11.18
123.329994,2.71,5.49,8.55
123.409996,3.61,-3.77,9.38
123.50001,-0.16,-1.65,11.06
123.579994,1.37,-0.59,5.02
123.670006,-1.49,0.0,7.02
123.76,-2.86,1.57,13.69
123.840004,1.02,0.78,11.81
123.93,2.51,-1.18,11.1
124.01,-1.18,2.16,5.53
124.1,3.22,0.75,6.83
124.189995,-1.77,2.24,5.22
124.27,2.79,1.14,11.69
124.36001,5.37,-6.67,14.32
124.439995,0.0,0.24,9.14
124.53001,0.75,1.22,4.51
124.62,-1.53,0.27,5.88
124.700005,-0.98,1.92,8.39
124.79,-3.26,1.26,11.81
124.87,4.31,-1.22,12.79
124.96,-2.0,1.61,7.14
125.049995,0.98,0.47,4.75
125.13,1.33,2.86,5.14
125.21999,0.59,0.04,12.47
125.299995,2.2,0.12,12.0
125.39001,0.51,-1.22,8.51
125.48,0.63,-1.26,8.9
125.560005,-0.86,-0.43,6.32
125.65,-2.63,1.65,7.69
125.73,-0.55,0.16,11.45
125.82,-3.65,-7.53,11.77
125.909996,1.29,0.35,10.04
125.99,-0.16,0.43,3.53
126.079994,1.49,1.18,5.3
126.159996,0.24,1.33,11.61
126.25001,5.1,4.0,11.22
126.340004,2.98,-4.12,8.71
126.420006,-0.67,0.2,7.61
126.51,2.16,0.43,5.57
126.590004,-1.22,0.63,6.43
126.68,-0.75,1.02,11.77
126.77,-0.16,0.27,13.81
126.85,2.55,-3.06,9.77
126.939995,-1.41,0.86,6.86
127.02,0.9,0.82,4.55
127.11001,2.43,2.67,7.06
127.200005,1.92,1.92,10.28
127.28001,1.84,-1.84,11.14
127.37,0.63,-1.84,8.16
127.450005,-0.51,0.71,7.85
127.54,0.63,0.16,5.69
127.63,-1.61,0.78,8.94
127.71,-4.2,2.39,11.57
127.799995,2.31,-5.77,10.63
127.88,-0.9,-0.98,11.69
127.96999,-2.0,-0.12,3.57
128.06,3.57,0.9,5.61
128.14,1.33,2.16,10.71
128.23,2.16,5.06,10.9
128.31,2.59,-2.43,7.81
128.4,0.82,-2.43,10.9
128.48999,0.12,0.12,5.41
128.56999,-1.88,0.78,6.51
128.65999,0.47,-1.1,11.89
128.73999,1.61,-0.27,13.73
128.82999,3.45,-3.37,12.87
128.92,-0.94,0.63,5.57
129.0,1.18,1.02,4.12
129.09,1.57,2.63,8.0
129.17,2.2,0.55,14.32
129.26,6.24,-7.61,14.47
129.34999,0.86,-0.04,8.94
129.43,2.47,1.33,2.94
129.51999,-1.45,-0.31,7.61
129.59999,-2.04,2.16,7.92
129.68999,-5.18,1.1,10.36
129.78,4.39,-3.61,10.94
129.86,-1.45,0.16,8.94
129.95,-0.86,0.12,4.51
130.03,1.45,1.96,5.53
130.12,-0.43,0.51,8.98
130.20999,3.57,4.0,10.28
130.29,1.22,-3.65,9.92
130.37999,1.37,-1.8,9.41
130.45999,0.67,-0.59,6.9
130.54999,-3.96,2.82,5.84
130.64,0.86,-0.78,10.36
130.71999,0.75,1.29,13.96
130.81,2.9,-4.16,11.89
130.89,-1.77,0.04,8.63
130.98,-0.31,0.2,5.96
131.06999,0.35,2.75,6.0
131.15,0.27,-0.51,11.69
131.23999,1.88,2.86,12.43
131.31999,3.57,-3.61,9.45
131.40999,0.71,-1.92,8.79
131.5,0.2,-0.27,6.86
131.57999,-2.24,0.75,7.14
131.67,-0.67,-0.04,10.12
131.75,-3.45,1.73,11.65
131.84,3.92,-5.88,8.94
131.93,-2.04,0.08,9.49
132.01,-0.67,0.59,4.28
132.09999,1.88,1.8,5.92
132.18,1.77,0.94,12.36
132.26999,3.33,3.69,10.83
132.36,3.57,-4.51,8.39
132.43999,1.22,-0.82,7.37
132.53,1.69,-1.57,6.67
132.61,-3.73,0.04,6.55
132.7,0.04,-1.57,9.85
132.79,-1.57,-0.75,11.38
132.87,4.16,-1.84,12.63
132.95999,3.96,1.02,10.0
133.04,-1.84,-0.59,3.26
133.12999,1.65,2.2,6.59
133.21999,-1.06,-0.43,10.71
133.29999,5.02,-0.98,12.79
133.39,0.67,-3.22,9.89
133.46999,1.73,-1.84,6.79
133.56,-2.43,-2.04,8.36
133.65,-2.55,0.75,5.61
133.73,0.24,-0.63,10.9
133.81999,2.55,1.29,12.55
133.9,2.98,-2.39,8.98
133.98999,0.24,-0.12,6.12
134.07999,0.39,0.9,6.2
134.15999,-1.02,3.02,8.51
134.25,2.28,0.63,17.5
134.32999,6.04,-3.57,10.4
134.42,0.67,-1.84,9.14
134.51,2.16,0.2,4.9
134.59,-2.31,-0.78,6.2
134.68,-0.75,1.57,8.12
134.76,-3.96,-0.67,12.16
134.84999,2.98,-8.47,11.57
134.93999,-1.61,-0.86,10.24
135.01999,-1.45,-0.2,3.84
135.11,3.1,0.47,7.14
135.18999,0.39,1.49,11.69
135.28,3.65,2.98,10.51
135.37,3.84,-5.14,8.08
135.45,0.47,-0.16,6.59
135.54,0.94,0.82,6.2
135.62,-3.26,-0.55,5.61
135.70999,-1.1,-0.75,11.02
135.79999,0.08,0.71,12.51
135.87999,2.63,-2.94,9.73
135.96999,-0.82,-0.12,8.83
136.04999,-0.98,0.47,5.3
136.14,2.0,1.88,6.32
136.23,-0.51,-2.12,13.65
136.31,1.8,-1.37,13.89
136.4,0.27,-1.14,7.1
136.48,0.47,-0.9,9.41
136.56999,-0.35,-0.24,7.22
136.65999,-3.22,1.22,7.14
136.73999,-0.98,-2.43,11.26
136.82999,0.55,-0.82,12.43
136.90999,3.18,-1.88,12.55
137.0,-1.1,0.27,5.18
137.09,0.67,-0.27,5.88
137.17,0.16,2.75,7.06
137.26,3.18,-0.43,15.38
137.34,5.45,-4.94,12.67
137.43,0.08,-0.51,9.26
137.51999,1.61,-0.08,4.94
137.59999,-2.0,-2.28,4.47
137.68999,-0.75,0.59,8.63
137.76999,-3.3,2.24,13.06
137.86,4.51,-3.88,10.71
137.95,-2.12,-0.39,9.92
138.03,-0.98,-0.27,3.41
138.12,2.16,1.41,5.26
138.2,1.57,0.12,13.06
138.29,1.65,2.31,12.32
138.37999,2.16,-3.1,8.43
138.45999,1.92,-1.29,8.24
138.54999,-2.12,-1.06,7.53
138.62999,-0.51,0.39,6.75
138.71999,1.8,-2.75,12.2
138.81,-0.04,-4.55,13.81
138.89,0.86,-1.73,11.18
138.98,0.39,0.0,6.43
139.06,2.04,0.9,4.51
139.15,0.08,2.39,8.98
139.23999,4.04,3.49,13.34
139.31999,4.79,-6.55,12.4
139.40999,1.26,-0.78,7.57
139.48999,1.22,0.55,4.24
139.57999,-2.55,-0.82,6.28
139.67,-1.45,1.14,9.49
139.75,-2.67,1.06,12.83
139.84,3.1,-1.92,11.26
139.92,0.12,-0.86,7.61
140.01,-1.29,-0.55,5.06
140.09999,0.75,2.12,4.82
140.18,2.2,-0.43,11.77
140.26999,0.98,-2.16,12.94
140.34999,1.29,-3.96,9.69
140.43999,0.27,-0.75,7.02
140.53,-0.98,-0.12,5.81
140.61,-1.37,1.22,7.37
140.7,-1.33,-0.55,12.12
140.78,-1.45,-7.96,10.67
140.87,-0.08,-0.71,11.38
140.95999,-0.16,-1.41,3.53
141.04,2.79,2.59,4.94
141.12999,1.37,0.24,13.65
141.20999,2.86,4.31,9.73
141.29999,3.53,-5.37,9.1
141.39,1.8,-1.8,7.22
141.46999,1.57,-1.37,6.35
141.56,-2.28,-1.37,7.53
141.64,1.02,1.57,10.04
141.73,-2.55,-0.55,12.0
141.81999,3.45,-3.84,8.9
141.9,-1.06,0.24,8.08
141.98999,-1.26,0.47,4.75
142.06999,1.1,2.39,5.57
142.15999,2.28,-1.33,12.4
142.25,0.47,-1.45,13.34
142.32999,-0.35,-1.45,10.36
142.42,1.45,0.0,7.49
142.5,-1.29,-0.63,6.71
142.59,-1.96,1.02,6.08
142.68,-1.73,-4.31,11.69
142.76,0.59,-1.96,11.89
142.84999,1.45,-1.88,12.67
142.93,-0.55,-0.24,5.14
143.01999,1.18,0.63,5.26
143.11,0.43,2.86,7.45
143.18999,0.24,0.86,13.49
143.28,4.79,-4.98,11.41
143.36,-0.12,-0.82,10.79
143.45,0.78,0.43,4.16
143.54,-1.14,-0.63,7.22
143.62,-0.67,1.33,7.22
143.70999,-3.22,0.16,12.32
143.79,1.84,-8.39,10.98
143.87999,0.35,-1.1,8.63
143.96999,-2.04,-0.39,4.9
144.04999,2.24,2.47,4.98
144.14,2.31,-0.71,12.04
144.21999,1.92,5.45,9.73
144.31,2.94,-4.67,7.26
144.4,1.37,-1.96,9.57
144.48,0.94,-1.14,5.3
144.56999,0.08,0.2,7.34
144.65,0.12,-0.75,11.53
144.73999,-2.31,0.86,13.14
144.82999,2.47,-1.65,10.94
144.90999,0.24,0.63,7.34
145.0,0.08,0.16,4.79
145.07999,0.86,2.28,5.69
145.17,0.63,-0.12,12.75
145.26,0.71,-1.06,11.45
145.34,0.43,-2.04,9.96
145.43,1.22,-1.02,8.2
145.51,-0.9,-1.02,5.22
145.59999,-1.69,0.94,6.98
145.68999,-1.37,-3.1,11.81
145.76999,-0.16,-6.55,12.0
145.86,1.06,-3.22,11.85
145.93999,-0.35,-0.39,4.35
146.03,1.61,0.78,5.33
146.12,-0.31,1.37,10.24
146.2,3.73,4.0,10.83
146.29,3.33,-4.71,10.51
146.37,1.45,-1.06,7.49
146.45999,0.51,1.37,3.92
146.54999,-3.1,-2.04,6.67
146.62999,1.8,-0.43,12.59
146.71999,-2.67,0.55,12.16
146.79999,4.28,-5.18,8.2
146.89,-2.55,0.67,9.69
146.98,-0.9,0.08,3.92
147.06,2.39,2.35,5.53
147.15,0.75,0.0,10.98
147.23,0.86,0.39,11.38
147.31999,1.49,-5.3,10.12
147.40999,2.55,-0.59,7.26
147.48999,0.08,-0.82,6.71
147.57999,-2.16,1.53,7.06
147.65999,-0.08,-1.45,13.06
147.75,-0.59,0.04,14.71
147.84,2.04,-2.16,11.92
147.92,-1.22,-0.04,6.43
148.01,1.26,0.86,5.41
148.09,0.71,2.9,6.12
148.18,1.77,-1.02,15.93
148.26999,3.53,-5.53,13.06
148.34999,0.2,-1.61,9.96
148.43999,1.41,1.22,4.35
148.51999,-1.29,0.16,5.53
148.61,-1.41,1.06,7.34
148.7,-0.98,-1.92,12.16
148.78,0.08,-8.08,12.67
148.87,0.0,0.04,11.34
148.95,-1.73,-1.06,4.39
149.04,1.1,1.26,5.45
149.12999,-0.16,1.96,7.92
149.20999,2.71,0.71,13.14
149.29999,4.31,-5.53,14.24
149.37999,0.08,-1.26,10.36
149.46999,2.12,0.82,4.35
149.56,-2.08,-2.28,7.81
149.64,-0.98,0.35,7.18
149.73,-0.67,-1.33,8.67
149.81,5.06,-8.51,15.34
149.9,-1.96,-3.77,12.12
149.98999,-0.55,-2.79,6.67
150.06999,0.82,-1.57,7.1
150.15999,2.47,-0.2,7.26
150.23999,1.33,-0.43,6.47
150.32999,1.57,-1.45,11.69
150.42,-0.98,-0.63,6.51
150.5,-0.24,-1.96,9.22
150.59,0.55,-1.57,8.59
150.67,0.2,-1.33,8.87
150.76,0.31,-1.14,8.94
150.84999,0.59,-1.18,8.75
150.93,0.31,-1.49,8.87
151.01999,0.47,-1.41,8.98
151.09999,0.59,-1.65,8.87
151.18999,0.63,-1.53,8.87
151.28,0.51,-1.61,8.75
151.36,0.55,-1.65,8.87
151.45,0.67,-1.65,8.83
151.53,0.63,-1.69,8.79
151.62,0.67,-1.53,8.87
151.70999,0.55,-1.57,8.75
151.79,0.63,-1.57,8.75
151.87999,0.51,-1.53,8.83
151.95999,0.59,-1.57,8.9
152.04999,0.55,-1.49,8.83
152.14,0.63,-1.69,8.83
152.21999,0.67,-1.53,8.79
152.31,0.63,-1.53,8.9
152.39,0.78,-1.49,8.63
152.48,0.67,-1.49,8.79
152.56999,0.67,-1.53,8.59
152.65,0.71,-1.61,8.79
152.73999,0.71,-1.53,8.75
152.81999,0.75,-1.49,8.83
152.90999,0.71,-1.41,8.75
153.0,0.75,-1.65,8.79
153.07999,0.51,-1.49,8.87
