NAME:,walk_5_2.csv,,
EXPERIMENT TIME:,05/06/2023 20:53,,
ACTIVITY TYPE:,Walking,,
COUNT OF ACTUAL STEPS:,301,,
,,,
Time [sec],ACC X,ACC Y,ACC Z
0.0,-0.08,-1.33,8.63
0.08999634,-0.47,-1.29,8.9
0.16999817,0.67,-3.06,7.18
0.2599945,0.35,-0.16,11.89
0.33999634,-0.2,-0.51,9.14
0.4300003,2.04,-0.04,8.51
0.51999664,0.27,1.06,7.88
0.5999985,1.77,0.0,10.0
0.6899948,1.69,-1.77,16.08
0.76999664,2.04,-2.94,7.88
0.8600006,0.9,-2.59,9.02
0.94999695,-0.12,-2.0,6.98
1.0299988,-1.92,-0.55,7.41
1.1199951,-0.78,0.16,9.65
1.199997,-1.29,-0.27,13.53
1.2899933,-1.33,-6.24,9.1
1.3799973,-0.63,-1.29,9.49
1.4599991,-1.61,-0.51,4.75
1.5499954,2.43,-0.31,5.92
1.6299973,0.31,1.88,9.02
1.7199936,1.26,-0.31,13.57
1.8099976,4.55,-6.79,11.85
1.8899994,0.04,-2.43,9.81
1.9799957,1.26,-2.12,4.55
2.0599976,-2.0,-1.1,6.51
2.149994,-0.98,-0.2,7.77
2.2399979,-2.43,-1.77,12.83
2.3199997,-0.98,-6.32,11.45
2.409996,-1.22,-1.73,11.06
2.4899979,-2.59,-0.9,4.0
2.5799942,1.77,-0.24,5.92
2.6699982,2.94,0.08,11.49
2.75,4.35,1.73,9.53
2.8399963,2.16,-7.49,12.43
2.9199982,0.78,-1.73,9.41
3.0099945,1.06,-0.31,5.14
3.0999985,-2.0,-1.41,7.45
3.1800003,-0.71,-0.63,8.63
3.2699966,-0.08,-0.59,11.89
3.3499985,1.77,-6.9,12.47
3.4399948,-0.78,0.04,8.16
3.5299988,-1.57,0.39,4.51
3.6100006,0.67,0.12,4.67
3.699997,0.43,1.22,6.43
3.7799988,3.22,1.61,9.89
3.869995,2.98,-8.08,13.49
3.959999,-1.29,-1.57,9.57
4.0399933,1.96,-0.55,4.16
4.1299973,-2.28,-0.63,5.88
4.209999,-1.06,1.14,9.3
4.2999954,-2.67,-0.08,12.63
4.3899994,3.41,-5.33,14.16
4.4699936,-2.12,-0.27,10.28
4.5599976,-0.94,0.82,3.45
4.6399994,1.49,1.37,4.04
4.7299957,-0.16,-1.45,11.1
4.8199997,3.14,1.49,8.51
4.899994,1.65,-7.96,13.69
4.989998,0.63,-2.24,8.94
5.0699997,0.08,-1.73,3.02
5.159996,-1.53,-0.86,5.92
5.25,-0.86,0.16,10.16
5.329994,-0.94,-2.04,9.92
5.419998,1.84,-6.94,14.91
5.5099945,-2.51,-0.59,8.55
5.5899963,1.73,-0.47,5.57
5.6800003,-1.1,3.33,4.39
5.7599945,1.88,-0.12,12.83
5.8499985,1.77,-10.28,16.87
5.939995,0.43,-2.75,11.92
6.0199966,2.31,-0.67,4.86
6.1100006,-1.8,-0.27,5.84
6.189995,-1.29,-0.59,6.67
6.279999,-3.61,-0.24,12.08
6.369995,1.22,-6.0,10.83
6.449997,-2.0,-3.65,15.06
6.5399933,-2.2,-0.2,4.12
6.619995,2.16,-0.86,6.28
6.709999,-0.2,1.29,10.43
6.7999954,3.3,-2.12,15.93
6.8799973,3.18,-6.43,11.26
6.9699936,0.75,-2.98,13.3
7.0499954,1.84,-0.39,5.61
7.1399994,-2.16,-1.61,7.61
7.2299957,-1.1,1.14,8.47
7.3099976,-3.57,0.63,11.38
7.399994,3.8,-6.71,11.18
7.4799957,-2.24,-1.14,9.41
7.5699997,-1.29,-0.08,4.51
7.659996,1.96,0.59,5.73
7.739998,-1.22,-0.31,10.04
7.829994,3.96,0.43,13.26
7.909996,1.53,-5.3,11.18
8.0,-0.31,-4.28,13.02
8.089996,2.0,-1.1,6.24
8.169998,-1.69,-1.45,7.73
8.2599945,-0.27,0.0,7.77
8.339996,-4.39,-0.24,12.67
8.43,1.1,-9.38,11.77
8.519997,-1.61,-0.82,11.14
8.599998,-2.16,0.08,4.31
8.689995,2.67,-0.04,6.75
8.769997,-0.27,1.41,7.57
8.860001,1.41,-0.24,12.24
8.949997,-0.75,-2.82,14.4
9.029999,-0.08,-3.84,8.79
9.119995,0.78,-1.61,7.02
9.199997,-2.43,-2.39,6.35
9.289993,-0.9,-0.04,7.06
9.379997,-1.29,-1.37,9.14
9.459999,-2.12,-1.37,12.91
9.549995,2.31,-4.39,9.22
9.629997,-2.2,-0.16,8.71
9.719994,0.47,-0.35,4.75
9.809998,0.59,1.22,5.81
9.889999,2.2,-1.45,10.16
9.979996,0.75,1.84,11.61
10.059998,0.94,-5.41,6.98
10.149994,2.04,-2.39,7.22
10.239998,-0.12,-1.41,5.69
10.32,-1.88,-1.1,7.49
10.409996,1.18,0.35,8.55
10.489998,-3.26,-0.27,12.79
10.579994,-0.12,-8.2,9.77
10.659996,-2.16,-1.77,10.04
10.75,-1.8,-0.82,5.1
10.839996,2.12,0.39,5.77
10.919998,0.12,0.78,8.98
11.0099945,2.28,-0.12,11.89
11.089996,2.35,-6.28,13.34
11.18,-1.26,-2.59,10.4
11.269997,0.24,-0.67,6.75
11.349998,-2.2,-1.61,5.81
11.439995,-1.57,0.12,7.77
11.519997,-0.78,-3.45,9.18
11.610001,-2.0,-4.55,12.51
11.699997,0.78,-4.39,11.02
11.779999,0.2,-1.37,6.9
11.869995,0.43,-0.43,5.45
11.949997,1.61,1.33,6.08
12.039993,1.57,-2.08,10.51
12.129997,2.24,2.82,12.55
12.209999,0.75,-4.9,6.63
12.299995,1.53,-3.14,8.51
12.379997,0.51,-0.2,6.67
12.469994,-1.69,-0.94,7.14
12.559998,-0.39,0.16,8.24
12.639999,-3.88,-1.61,12.83
12.729996,-2.08,-6.63,12.32
12.809998,0.04,-1.96,11.41
12.899994,-0.98,-0.24,6.04
12.989998,2.24,-0.39,6.12
13.07,-0.2,0.31,6.86
13.159996,1.26,0.63,10.2
13.239998,0.71,-2.82,14.55
13.329994,-0.12,-3.33,4.47
13.419998,2.51,-1.06,5.92
13.5,-0.71,-1.45,5.65
13.589996,-1.84,0.35,7.3
13.669998,1.18,0.12,9.69
13.7599945,-3.49,-0.16,11.1
13.849998,-1.06,-6.12,10.43
13.93,-1.53,-1.29,11.65
14.019997,-1.69,-0.2,4.35
14.099998,2.43,0.27,6.32
14.189995,-0.12,0.98,7.49
14.279999,2.12,0.16,12.36
14.360001,0.12,-4.04,12.67
14.449997,-1.49,-2.31,8.75
14.529999,1.8,-1.73,7.26
14.619995,-2.16,-2.12,5.96
14.709999,-0.94,0.31,6.63
14.789993,0.31,-1.41,9.85
14.879997,-3.37,-2.94,12.47
14.959999,3.8,-4.71,11.02
15.049995,-1.69,-2.12,6.59
15.139999,2.9,-0.67,5.33
15.219994,0.9,1.73,5.92
15.309998,1.57,-0.59,11.45
15.389999,3.1,-0.2,13.14
15.479996,-0.2,-3.06,5.14
15.57,0.39,-0.94,7.06
15.649994,-1.37,-1.61,6.32
15.739998,-0.2,0.04,7.1
15.82,0.47,0.35,10.87
15.909996,-3.45,-0.75,12.08
16.0,1.26,-4.9,11.69
16.079994,-1.84,-1.22,7.1
16.169998,0.2,-0.39,6.08
16.259995,1.73,-0.24,6.71
16.339996,0.39,-1.18,9.85
16.43,2.67,1.84,10.24
16.509995,1.14,-6.32,8.71
16.599998,1.14,-1.14,7.96
16.689995,1.49,0.35,3.02
16.769997,-1.53,-1.33,7.88
16.86,0.0,0.24,9.89
16.939995,-1.1,0.43,11.06
17.029999,2.0,-6.12,10.75
17.119995,-3.26,-0.86,9.26
17.199997,-0.55,-0.04,3.73
17.289993,1.49,-0.08,6.39
17.369995,-0.12,-0.08,10.59
17.46,3.73,1.18,10.75
17.549995,0.43,-5.73,9.81
17.629997,0.9,-3.61,9.77
17.719994,0.9,-0.39,6.47
17.799995,-2.16,-0.9,7.96
17.89,-0.39,0.24,9.14
17.979996,-4.08,0.51,11.77
18.059998,-0.75,-9.06,12.79
18.149994,-2.12,-1.26,9.92
18.229996,-1.65,-0.43,4.47
18.32,1.57,0.04,5.3
18.409996,0.71,0.94,9.02
18.489998,1.88,-1.26,13.81
18.579994,5.1,-9.02,13.34
18.659996,-0.43,-1.84,11.57
18.75,1.06,-0.31,5.84
18.839996,-2.55,-3.49,6.86
18.919998,-0.78,0.51,8.55
19.009995,-1.84,-1.41,12.75
19.089996,0.39,-9.02,9.92
19.18,-0.98,-0.67,9.77
19.269997,-2.75,-0.51,5.33
19.349998,2.16,0.24,3.88
19.439995,0.2,0.94,8.63
19.519997,4.04,0.08,13.18
19.61,1.1,-5.88,10.71
19.699997,0.0,-3.65,11.85
19.779999,0.98,0.2,5.22
19.869995,-1.57,-2.12,7.41
19.949997,-1.84,-0.08,8.32
20.039993,-4.28,-2.51,10.79
20.129997,0.04,-10.43,11.1
20.21,-1.84,-2.43,9.89
20.299995,-0.35,-0.08,3.69
20.379997,1.29,0.12,5.3
20.469994,0.39,1.61,9.61
20.559998,3.22,-0.59,13.3
20.64,1.92,-7.92,11.92
20.729996,0.39,-2.9,9.89
20.809998,0.75,-0.98,6.35
20.899994,-1.1,-0.2,5.49
20.989998,-0.43,0.08,6.83
21.07,-4.47,-0.67,11.49
21.159996,-0.94,-7.41,10.55
21.239998,-1.69,-2.86,12.83
21.329994,-2.0,-0.39,4.67
21.409996,1.61,0.08,4.79
21.5,0.43,0.47,9.57
21.589996,1.53,2.43,10.47
21.669998,2.79,-8.39,12.36
21.759995,1.92,-2.43,10.67
21.839996,1.26,0.47,4.9
21.93,-1.37,-0.24,5.69
22.019997,-1.8,0.08,9.38
22.099998,-3.57,0.59,11.06
22.189995,-0.04,-8.63,11.1
22.269997,-1.69,-2.43,12.24
22.36,-2.47,0.04,3.1
22.449997,2.47,-0.63,6.35
22.529999,0.04,2.0,7.3
22.619995,1.53,-2.43,13.38
22.699997,2.31,-8.67,13.85
22.789993,0.67,-1.37,7.88
22.879997,-1.02,-0.63,6.2
22.96,-0.94,-0.55,6.75
23.049995,-0.75,0.63,5.88
23.129997,-2.63,-4.82,12.47
23.219994,-1.92,-3.37,10.79
23.309998,3.49,-5.18,13.1
23.39,-2.35,-1.26,7.41
23.479996,2.08,-0.08,6.55
23.559998,0.16,2.12,5.22
23.649994,0.71,0.98,11.73
23.739998,1.18,-3.49,13.45
23.82,-2.28,-2.28,8.39
23.909996,2.43,-1.96,8.51
23.989998,-1.69,-0.75,5.45
24.079994,-0.78,-0.08,6.86
24.169998,-0.43,0.51,9.57
24.25,-2.82,-0.51,10.28
24.339996,3.69,-4.43,12.36
24.419998,-1.37,1.02,6.35
24.509995,1.22,-0.55,5.92
24.599998,0.24,1.18,5.41
24.68,1.69,-2.59,9.85
24.769997,3.37,2.31,10.4
24.849998,-0.12,-3.96,4.51
24.939995,1.61,-2.08,6.94
25.029999,0.98,-0.98,5.33
25.11,-1.33,0.2,7.37
25.199997,0.2,2.0,5.02
25.279999,-3.69,-0.63,10.63
25.369995,3.77,-5.69,11.26
25.46,-0.35,-0.63,8.47
25.539993,-0.43,0.08,4.94
25.629997,1.33,0.31,6.16
25.71,0.16,0.9,8.47
25.799995,2.67,0.9,11.41
25.89,3.45,-7.61,12.91
25.969994,0.59,-2.79,10.08
26.059998,1.65,0.16,6.35
26.14,-1.29,0.27,6.94
26.229996,-2.28,0.75,7.88
26.32,-1.92,-1.88,5.84
26.399994,-0.35,-3.1,10.55
26.489998,0.47,-4.2,13.96
26.57,-1.1,-0.47,4.9
26.659996,2.67,0.43,6.83
26.75,-0.04,1.49,6.71
26.829994,3.14,-1.8,9.89
26.919998,-0.2,2.04,12.0
27.009995,1.57,-4.67,7.49
27.089996,2.59,-2.16,6.83
27.18,-0.47,-0.75,6.24
27.259995,-1.57,0.39,7.06
27.349998,0.2,3.18,8.24
27.439995,-2.51,-1.29,12.98
27.519997,3.77,-3.73,9.81
27.61,-1.41,-0.39,7.57
27.689995,1.26,-0.35,6.08
27.779999,0.35,0.82,6.28
27.869995,-0.04,-0.08,8.83
27.949997,1.61,2.75,10.94
28.039993,2.31,-6.04,10.08
28.119995,1.84,-3.69,12.28
28.21,0.31,-0.63,6.32
28.299995,-1.18,-0.2,6.75
28.379997,-1.37,0.9,7.81
28.469994,-3.18,-1.53,10.79
28.549995,-1.41,-4.0,9.77
28.64,2.79,-2.04,10.2
28.729996,-1.45,-0.98,8.75
28.809998,1.69,0.24,5.88
28.899994,0.59,0.94,6.75
28.979996,1.77,-0.75,9.06
29.07,0.9,2.28,11.57
29.159996,0.71,-5.61,7.02
29.239998,2.51,-2.39,7.41
29.329994,-0.78,-1.8,7.1
29.409996,-1.45,-1.92,8.43
29.5,-0.35,0.47,7.57
29.589996,-3.61,0.12,10.04
29.669998,-0.16,-6.86,11.3
29.759995,0.08,-3.37,13.22
29.839996,-1.37,-0.78,6.0
29.93,1.65,-0.35,6.71
30.019997,0.16,1.49,6.86
30.099998,0.82,-0.47,10.4
30.189995,0.51,0.24,12.94
30.269997,-1.18,-2.82,7.61
30.36,2.16,-2.28,7.49
30.449997,-1.02,-1.88,6.71
30.529999,-0.63,-0.43,7.61
30.619995,-0.08,0.47,9.69
30.699997,-3.06,-1.49,11.65
30.789993,0.08,-7.1,10.55
30.879997,-3.18,-1.33,11.69
30.96,-1.53,0.39,6.32
31.049995,1.69,0.0,6.71
31.129997,0.75,2.16,7.22
31.219994,1.65,-1.57,14.95
31.309998,-0.12,-2.51,12.04
31.39,-1.53,-3.45,9.02
31.479996,1.61,-1.53,7.26
31.559998,-1.22,-1.37,6.55
31.649994,-2.04,0.82,6.2
31.739998,-0.63,0.24,9.81
31.82,-2.0,-1.8,12.79
31.909996,2.71,-4.9,10.36
31.989998,-1.69,-1.22,8.2
32.079994,1.37,0.27,4.04
32.159996,-0.16,1.22,5.53
32.25,3.02,-0.51,10.59
32.339996,2.0,-0.9,11.22
32.42,-3.57,-1.29,6.0
32.509995,0.2,-2.28,6.39
32.589996,0.86,-1.37,6.32
32.68,-0.47,0.24,6.24
32.769997,-3.73,-3.8,11.45
32.85,-0.71,-8.04,11.1
32.939995,-1.26,-3.77,12.04
33.019997,0.08,-0.55,5.88
33.11,2.28,-0.43,5.77
33.199997,-0.55,2.16,6.63
33.28,3.57,-2.16,16.08
33.369995,2.9,-8.79,14.2
33.449997,0.27,-2.98,11.1
33.539993,1.73,-0.35,5.77
33.629997,-2.28,-0.51,6.04
33.70999,-1.45,0.39,7.96
33.800003,-1.29,-3.45,10.16
33.87999,-0.2,-7.1,11.89
33.97,-1.06,-3.84,11.89
34.059998,-1.41,-0.08,5.18
34.14,2.16,0.2,6.2
34.229996,-0.27,1.45,7.53
34.319992,3.61,-0.55,14.04
34.399994,0.16,-6.0,13.65
34.48999,0.39,-3.18,10.55
34.569992,2.67,-1.26,5.45
34.660004,-2.94,-0.75,7.34
34.73999,-1.22,-0.27,7.18
34.83,-1.8,-3.33,8.55
34.92,-0.9,-3.73,11.38
35.0,2.79,-4.28,13.65
35.089996,-1.33,-0.71,6.39
35.179993,0.86,-0.12,6.98
35.259995,0.86,1.41,5.14
35.34999,2.24,-3.57,9.34
35.429993,0.08,1.26,12.4
35.520004,-1.26,-2.79,6.86
35.59999,2.0,-1.84,8.36
35.690002,-1.69,-2.35,4.67
35.78,-0.82,-0.35,7.49
35.86,-0.78,0.51,9.81
35.949997,-1.77,0.16,9.38
36.039993,1.53,-6.24,11.18
36.119995,-1.96,-1.69,10.36
36.20999,0.35,-0.94,6.2
36.289993,0.35,0.47,6.12
36.37999,-0.2,-0.51,9.18
36.45999,3.49,1.69,11.89
36.550003,1.69,-5.33,8.63
36.64,0.55,-2.86,12.04
36.72,0.86,-1.57,6.9
36.809998,-2.0,-0.86,7.02
36.899994,-0.71,-0.59,9.14
36.979996,-3.41,-0.71,13.06
37.069992,1.84,-10.12,8.47
37.149994,-1.53,-2.47,11.45
37.23999,-1.45,-0.51,5.81
37.33,2.98,-0.31,5.92
37.410004,-0.31,1.69,8.39
37.5,2.63,-0.98,15.53
37.58,0.78,-6.43,12.4
37.67,0.71,-3.14,12.43
37.75,2.55,-0.71,4.55
37.839996,-2.24,-0.43,7.88
37.929993,-1.22,0.82,7.77
38.009995,-3.37,-1.22,11.96
38.09999,0.16,-5.81,10.04
38.190002,0.31,-3.69,13.81
38.270004,-2.98,-0.59,5.81
38.36,2.35,0.0,4.35
38.440002,-1.22,2.24,7.96
38.53,1.8,-2.67,14.59
38.61,2.39,-7.61,13.1
38.699997,-0.24,-2.55,10.32
38.789993,1.61,0.04,5.3
38.869995,-1.61,-1.02,7.14
38.95999,-0.31,0.47,6.32
39.050003,-3.33,-1.88,13.53
39.12999,-0.51,-7.53,11.85
39.22,0.31,-4.31,13.18
39.300003,-0.71,-0.78,7.73
39.39,0.82,0.47,4.98
39.47,0.94,2.12,5.22
39.559998,-0.04,-2.04,12.08
39.649994,0.2,-7.88,15.53
39.729996,-1.65,-1.73,7.96
39.819992,0.75,-0.75,7.34
39.910004,-0.63,-2.51,5.61
39.98999,-1.69,0.78,6.94
40.08,-1.69,-1.84,9.41
40.160004,-0.59,-2.59,9.57
40.25,0.0,-4.55,14.2
40.33,0.16,-0.86,7.61
40.42,0.59,0.31,4.98
40.509995,0.04,2.12,5.77
40.589996,1.53,-1.14,11.77
40.679993,1.33,-1.33,12.0
40.770004,-1.41,-4.16,10.36
40.84999,3.41,-2.47,6.67
40.940002,-1.96,-0.86,6.86
41.020004,-1.53,1.73,5.92
41.11,-1.96,-2.04,9.69
41.190002,-0.2,-3.92,11.02
41.28,1.49,-4.9,12.94
41.369995,-1.41,-0.75,7.77
41.449997,1.18,0.12,5.69
41.539993,-0.47,2.2,4.98
41.62999,1.88,-0.67,9.89
41.70999,0.39,-3.45,13.34
41.800003,0.16,-2.47,9.14
41.87999,1.02,-1.53,8.83
41.97,-0.82,-2.08,6.59
42.050003,-1.41,0.86,6.16
42.14,-1.29,-1.57,7.77
42.229996,-4.04,-5.22,14.0
42.309998,2.04,-4.16,14.51
42.399994,-1.49,-2.39,8.32
42.48999,1.18,-0.55,4.71
42.569992,0.24,1.8,4.82
42.660004,1.61,-1.45,11.34
42.73999,2.31,0.86,10.32
42.83,0.04,-4.12,10.2
42.910004,1.57,-2.39,8.04
43.0,-1.33,-1.84,5.61
43.089996,-1.37,1.02,6.47
43.17,-1.53,-0.04,9.34
43.259995,-2.2,-0.63,9.73
43.34999,1.84,-6.47,14.75
43.429993,0.75,0.27,6.35
43.520004,0.27,-0.04,4.63
43.59999,0.35,1.33,5.45
43.690002,1.96,-1.49,10.67
43.770004,1.37,1.92,11.34
43.86,-0.78,-4.16,6.24
43.949997,2.59,-2.2,6.75
44.03,-1.14,-0.94,5.37
44.119995,-0.47,0.08,6.71
44.20999,-0.27,0.2,7.85
44.289993,-3.1,-2.55,11.38
44.37999,3.18,-6.75,12.0
44.45999,-1.65,-1.02,8.47
44.550003,0.71,-0.35,4.47
44.62999,0.71,0.59,5.33
44.72,0.75,-1.22,8.75
44.809998,2.63,0.35,10.36
44.89,0.82,-5.69,6.55
44.979996,2.31,-3.02,7.92
45.069992,-0.98,-0.78,5.37
45.149994,-0.71,-0.27,7.41
45.23999,0.16,2.59,7.57
45.319992,-1.8,-0.27,10.51
45.410004,0.0,-8.32,15.34
45.48999,-1.45,-2.75,12.16
45.58,-1.61,-0.82,4.9
45.67,0.55,0.43,5.96
45.75,1.61,1.92,6.47
45.839996,2.67,1.84,13.1
45.929993,1.61,-7.06,9.41
46.009995,-0.35,-2.71,10.67
46.09999,1.57,0.08,5.61
46.179993,-0.55,-1.37,5.96
46.270004,-0.43,0.27,8.47
46.34999,-4.2,0.2,10.08
46.440002,3.26,-7.69,13.45
46.53,-3.41,-0.86,9.18
46.61,0.12,0.31,5.84
46.699997,1.65,0.35,5.02
46.789993,-0.51,-2.39,6.55
46.869995,3.69,1.92,9.41
46.95999,2.82,-9.69,13.93
47.039993,-0.39,-2.2,8.51
47.12999,1.02,-0.43,3.84
47.20999,-0.31,-0.67,7.73
47.300003,-0.63,1.29,7.57
47.39,-3.88,1.45,11.22
47.47,3.61,-4.9,14.47
47.559998,-2.98,-0.59,9.61
47.649994,-1.88,1.53,3.14
47.729996,1.96,0.51,5.14
47.819992,1.02,-0.78,10.71
47.899994,2.71,0.63,10.87
47.98999,1.73,-6.9,10.12
48.069992,0.51,-2.2,9.73
48.160004,-0.2,-1.65,4.67
48.25,-1.49,-0.63,6.75
48.33,-0.86,1.88,8.83
48.42,-2.35,-0.55,11.53
48.5,4.08,-4.86,15.1
48.589996,-3.02,-0.24,6.59
48.679993,0.94,-0.08,4.43
48.759995,0.08,1.37,3.84
48.84999,3.37,-1.18,10.04
48.940002,1.06,0.71,11.3
49.020004,1.96,-0.94,6.94
49.11,2.08,-3.92,11.02
49.190002,-2.43,-2.63,5.81
49.28,-0.9,-0.12,4.82
49.36,-3.69,-2.86,11.73
49.449997,0.39,-6.86,14.16
49.539993,0.04,-4.59,12.79
49.619995,-0.86,-0.35,6.79
49.70999,0.82,0.04,5.33
49.800003,1.18,1.92,4.28
49.87999,3.1,0.27,14.28
49.97,3.8,-10.59,16.44
50.050003,-0.9,-1.69,9.34
50.14,3.45,-0.75,4.67
50.22,-2.04,-1.88,6.47
50.309998,0.71,2.04,7.96
50.399994,-4.0,0.31,12.75
50.479996,1.37,-5.1,12.91
50.569992,-2.16,-2.55,11.02
50.660004,-1.65,0.51,5.49
50.73999,1.61,-0.12,4.51
50.83,-0.63,0.47,7.3
50.910004,3.41,1.41,12.28
51.0,3.02,-8.16,12.67
51.08,1.29,-2.86,9.69
51.17,1.77,-0.9,4.24
51.259995,-1.96,-1.41,7.49
51.339996,-0.51,0.63,8.16
51.429993,-3.57,-0.51,12.67
51.520004,4.39,-5.18,11.49
51.59999,-1.92,-2.67,9.65
51.690002,0.16,-0.47,3.88
51.770004,0.67,0.47,4.82
51.86,2.9,-2.31,10.75
51.940002,1.37,2.39,10.2
52.03,0.51,-4.82,8.94
52.119995,1.14,-2.98,10.04
52.199997,0.2,-4.35,5.73
52.289993,0.27,-0.75,1.84
52.37999,-2.55,-1.77,11.1
52.45999,-0.71,-2.63,11.02
52.550003,0.75,-4.31,11.69
52.62999,-1.37,-1.69,7.45
52.72,2.47,-0.31,4.31
52.800003,-0.51,2.35,3.3
52.89,3.18,-2.51,14.87
52.979996,0.08,-6.83,13.34
53.059998,-1.22,-4.31,11.81
53.149994,3.26,-2.28,4.08
53.23999,-1.45,-2.94,7.69
53.319992,-1.61,0.78,8.9
53.410004,-2.16,1.37,13.49
53.48999,4.16,-4.0,15.93
53.58,-3.26,-1.37,12.12
53.660004,-0.67,0.39,2.08
53.75,1.65,-0.12,4.55
53.839996,2.51,-1.84,12.12
53.92,1.33,1.69,10.2
54.009995,0.82,-2.86,5.88
54.09999,2.16,-1.84,7.85
54.179993,-1.73,-4.63,3.49
54.270004,-0.35,1.41,6.75
54.34999,-3.1,0.2,12.75
54.440002,1.53,-8.71,15.1
54.520004,-4.55,-3.73,10.36
54.61,-0.94,0.51,5.81
54.699997,1.1,-1.84,1.57
54.78,1.33,-1.69,7.88
54.869995,0.35,2.75,7.22
54.95999,1.06,-8.47,10.12
55.039993,-1.65,-4.51,12.32
55.12999,-0.39,-0.55,2.86
55.20999,-0.75,-0.16,5.33
55.300003,-1.37,-2.04,11.69
55.37999,-1.65,-6.47,9.02
55.47,0.75,-5.02,11.26
55.559998,-1.92,-1.73,5.26
55.64,0.98,0.39,0.59
55.729996,2.98,1.65,7.41
55.819992,3.69,0.94,13.14
55.899994,3.92,-11.02,18.01
55.98999,-1.33,-3.65,14.4
56.069992,3.18,-0.59,0.71
56.160004,-1.65,1.02,5.37
56.23999,-1.53,-0.47,9.22
56.33,-4.67,-5.69,12.71
56.42,0.35,-8.0,14.79
56.5,-3.33,-0.98,5.37
56.589996,4.04,0.71,1.45
56.679993,2.71,2.24,9.89
56.759995,4.59,1.33,15.1
56.84999,5.61,-12.2,16.91
56.929993,-2.04,-2.31,15.69
57.020004,3.92,1.14,0.39
57.09999,-1.77,-1.69,5.18
57.190002,-0.04,0.0,8.04
57.28,-1.45,1.33,12.67
57.36,3.1,-3.26,13.89
57.449997,-2.47,-0.82,10.0
57.539993,0.9,0.12,3.33
57.619995,1.77,0.82,2.47
57.70999,2.51,-0.55,13.61
57.789993,1.02,2.55,10.87
57.87999,-0.27,-5.06,7.34
57.95999,1.8,-3.77,5.92
58.050003,-2.43,-3.3,5.61
58.14,0.04,-0.51,8.67
58.22,-6.12,1.88,12.67
58.309998,1.69,-5.84,17.89
58.399994,-2.82,-2.55,12.2
58.479996,-2.12,-1.49,2.51
58.569992,2.2,0.27,2.86
58.649994,3.22,0.24,12.51
58.73999,2.94,1.22,9.1
58.819992,1.8,-4.39,5.45
58.910004,0.71,-2.9,9.85
59.0,-2.12,-2.51,4.51
59.08,-0.04,1.26,8.28
59.17,-4.12,1.33,14.04
59.25,1.69,-6.24,16.59
59.339996,-2.79,-2.35,12.04
59.429993,-1.49,0.2,0.43
59.509995,2.2,-0.2,1.06
59.59999,1.8,0.16,10.28
59.690002,3.3,0.75,11.26
59.770004,-0.39,-4.08,4.47
59.86,2.2,-2.35,6.0
59.940002,-3.61,-1.26,3.96
60.03,-0.12,-0.43,9.22
60.11,-5.96,1.06,14.04
60.199997,-0.47,-5.33,15.65
60.289993,-2.31,-2.24,10.36
60.369995,-3.06,-0.16,2.43
60.45999,1.49,1.14,0.82
60.550003,2.2,-1.88,14.83
60.62999,0.75,2.28,11.65
60.72,-2.2,-6.47,6.67
60.800003,1.96,-0.98,5.06
60.89,-3.73,-3.96,4.71
60.97,-3.26,0.04,10.24
61.059998,-0.94,0.0,13.26
61.149994,0.82,-6.98,19.61
61.229996,-0.71,-0.2,9.65
61.319992,-1.53,-0.16,-2.71
61.410004,3.18,2.39,7.69
61.48999,4.59,1.57,13.45
61.58,3.8,-9.73,17.06
61.660004,0.39,0.59,10.24
61.75,2.16,-2.39,4.47
61.83,-6.79,2.39,8.55
61.92,-1.33,-1.49,12.08
62.009995,-2.2,-9.02,9.73
62.089996,0.98,-5.14,10.16
62.179993,-0.2,-1.84,5.1
62.270004,2.98,-0.04,5.02
62.34999,1.45,0.55,11.22
62.440002,5.3,1.37,11.1
62.520004,2.12,-5.88,8.12
62.61,2.31,1.77,4.55
62.690002,-1.45,-1.33,2.35
62.78,-3.18,0.98,8.87
62.869995,-1.26,-1.02,15.22
62.949997,-3.61,-9.89,11.22
63.039993,0.9,-4.2,9.89
63.12999,-0.04,-0.82,2.82
63.20999,3.57,-0.67,2.82
63.300003,1.02,0.9,12.16
63.37999,4.51,2.2,11.65
63.47,3.26,-6.24,7.49
63.550003,2.12,-1.96,5.81
63.64,-0.31,-3.84,5.26
63.729996,-2.12,-1.41,7.45
63.809998,0.67,-2.94,13.38
63.899994,-3.57,-8.12,12.0
63.98999,1.53,-5.1,8.67
64.06999,-0.59,-0.47,5.61
64.16,2.86,-0.24,5.18
64.23999,2.59,1.49,8.59
64.33,4.94,0.27,14.32
64.41,6.86,-7.45,11.38
64.5,-0.2,-1.06,8.12
64.59,2.71,-0.98,5.45
64.67,-2.12,-3.3,5.53
64.759995,1.41,-2.94,13.49
64.84999,-2.98,-1.96,11.53
64.92999,1.73,-5.33,12.4
65.020004,-1.69,-0.35,5.92
65.09999,2.79,-0.78,4.0
65.19,1.29,0.35,7.61
65.270004,2.55,-1.65,16.95
65.36,8.83,-9.1,12.79
65.45,-0.35,-3.49,7.73
65.53,0.47,-0.39,3.37
65.619995,-1.33,-3.61,4.75
65.70999,-0.31,-0.86,8.63
65.78999,-5.02,0.24,12.36
65.87999,-2.39,-7.96,9.14
65.95999,0.47,-2.08,7.61
66.05,-0.82,-1.29,4.0
66.12999,1.61,0.47,4.79
66.22,0.71,-1.92,14.47
66.31,1.14,0.27,8.59
66.39,0.31,-4.94,8.32
66.479996,1.61,-0.98,3.57
66.56999,-2.47,-1.18,6.08
66.649994,-0.94,-2.67,8.0
66.73999,-2.79,-1.37,13.57
66.81999,-3.77,-8.04,13.65
66.91,-0.35,-4.08,10.59
66.98999,-1.06,-1.29,3.02
67.08,1.73,-0.04,4.67
67.17,2.12,0.59,11.02
67.25,4.86,2.31,12.47
67.34,1.73,-4.08,6.35
67.42999,2.12,-1.29,7.34
67.509995,0.78,-1.49,4.55
67.59999,-2.12,-2.75,8.79
67.67999,2.82,-3.18,13.69
67.770004,-2.55,-1.41,13.38
67.84999,1.1,-5.96,10.59
67.94,-1.22,-2.24,7.57
68.03,-0.63,-0.27,3.57
68.11,2.43,-0.63,4.63
68.2,-0.39,-2.28,15.3
68.28999,1.69,-6.55,15.02
68.369995,0.86,-2.9,7.22
68.45999,0.2,-1.65,3.06
68.53999,0.63,-0.55,6.67
68.62999,-1.33,-2.28,5.1
68.70999,-0.75,-1.14,13.61
68.8,-3.22,-9.77,10.2
68.89,2.59,-5.02,8.59
68.97,-1.57,-2.16,5.18
69.06,2.43,-0.71,5.26
69.149994,1.1,-0.63,8.43
69.229996,3.3,1.33,13.06
69.31999,6.24,-5.1,11.69
69.399994,0.08,-3.26,8.87
69.48999,2.08,-2.47,5.57
69.56999,-1.88,-0.94,5.3
69.66,0.86,-2.79,11.26
69.75,-3.57,-0.31,13.06
69.83,0.24,-6.08,10.47
69.92,0.12,-1.92,8.98
70.0,-2.39,-1.45,4.55
70.09,3.41,-1.1,5.53
70.17999,1.73,-0.04,11.69
70.259995,2.94,2.16,10.71
70.34999,3.57,-5.65,6.75
70.44,1.37,-1.45,7.1
70.520004,0.39,-2.82,7.18
70.61,-2.08,-2.59,7.77
70.69,0.67,-2.08,11.49
70.78,-6.04,1.06,13.22
70.86,-1.65,-6.24,7.61
70.95,2.94,-4.0,9.73
71.03999,-3.33,-0.55,3.57
71.119995,3.88,0.04,4.9
71.20999,0.39,-0.24,12.24
71.3,3.84,0.67,10.28
71.37999,0.86,-4.24,6.71
71.47,0.31,-1.1,4.98
71.55,2.86,0.86,4.55
71.64,-1.77,-0.39,6.86
71.72,2.51,-5.1,13.34
71.81,-4.12,-2.08,12.0
71.899994,3.41,-5.45,10.79
71.979996,-0.27,-1.73,7.34
72.06999,0.16,-1.14,5.22
72.16,2.67,0.12,5.26
72.23999,-0.71,-2.43,14.32
72.33,2.98,-4.79,12.87
72.41,-0.2,-3.96,7.18
72.5,1.41,-2.39,4.47
72.58,0.39,-2.08,6.94
72.67,-2.75,-2.28,6.59
72.759995,1.02,-2.35,13.06
72.84,-2.31,-5.3,13.96
72.92999,2.39,-5.49,10.32
73.020004,-0.31,-0.35,5.3
73.09999,1.22,0.0,4.98
73.19,1.84,-0.12,6.28
73.270004,0.98,-1.33,15.61
73.36,5.73,-8.0,12.55
73.44,0.39,-3.45,8.67
73.53,0.63,-2.08,4.55
73.619995,-1.37,-1.45,5.22
73.7,-2.12,-1.69,7.3
73.78999,-3.3,-0.67,15.22
73.87999,-0.47,-7.49,13.06
73.95999,1.06,-2.43,10.79
74.05,-1.96,-1.45,4.28
74.12999,2.55,0.04,4.2
74.22,0.98,1.77,9.61
74.3,3.73,1.57,13.22
74.39,1.8,-3.69,6.35
74.479996,1.41,-2.08,9.3
74.56,2.04,-0.04,3.49
74.649994,-1.33,-1.41,6.98
74.73999,0.63,-1.77,11.69
74.81999,-4.47,0.59,13.69
74.91,1.96,-5.18,10.0
74.98999,-0.9,-2.59,8.12
75.08,-1.92,0.2,3.1
75.16,1.88,0.43,4.79
75.25,-0.27,-2.16,14.95
75.34,4.04,-6.83,11.49
75.42,-1.73,-2.28,7.37
75.509995,1.14,-0.9,4.43
75.59999,-1.65,-1.41,5.41
75.67999,-1.26,-2.12,7.41
75.770004,-3.3,-2.0,13.69
75.84999,-1.22,-6.2,11.73
75.94,1.26,-1.84,10.4
76.020004,-1.57,-1.37,3.8
76.11,3.26,0.39,5.14
76.2,1.73,1.57,9.49
76.28,3.26,-0.94,14.71
76.369995,3.45,-3.73,10.4
76.45999,1.49,-2.63,9.49
76.53999,2.24,-2.39,5.33
76.62999,-2.12,-0.63,6.12
76.70999,-1.77,-0.82,7.37
76.8,-3.69,-0.67,15.22
76.87999,-1.02,-8.51,10.2
76.97,-0.55,-1.96,10.36
77.06,-0.75,-1.37,3.8
77.14,2.43,-0.39,5.02
77.229996,-1.02,-1.69,10.47
77.31999,3.84,2.43,11.22
77.399994,2.75,-5.81,9.3
77.48999,1.06,-1.26,5.73
77.56999,0.78,-2.79,6.71
77.66,-1.49,-0.82,7.81
77.73999,0.24,-1.57,12.0
77.83,-1.73,0.04,10.79
77.92,1.96,-4.63,12.59
78.0,-0.82,-0.43,6.32
78.09,1.73,-0.12,5.18
78.17999,0.04,0.94,5.69
78.259995,2.04,-1.61,15.61
78.34999,1.65,-8.75,10.71
78.42999,-1.22,-2.86,8.9
78.520004,0.63,-2.51,6.28
78.59999,-1.26,-2.0,5.69
78.69,-1.96,-0.47,6.24
78.78,0.16,-4.59,11.96
78.86,-5.22,-4.59,12.71
78.95,2.43,-5.22,10.79
79.03999,-0.27,-1.77,5.84
79.119995,0.94,-0.47,5.53
79.20999,2.35,0.55,6.35
79.28999,1.96,-0.78,15.73
79.37999,3.8,-7.92,11.69
79.45999,-0.94,-2.28,8.04
79.55,0.9,-0.82,5.3
79.64,-1.96,-2.24,6.51
79.72,-2.39,-0.12,6.79
79.81,1.06,-3.06,12.28
79.899994,-3.8,-6.32,12.83
79.979996,1.69,-4.67,11.85
80.06999,-0.47,-0.98,5.49
80.149994,1.06,-0.08,4.9
80.23999,1.65,1.06,6.79
80.31999,1.61,-1.57,16.59
80.41,6.39,-5.61,10.94
80.5,0.59,-3.3,10.51
80.58,0.78,-0.9,4.39
80.67,-2.43,-1.88,6.75
80.75,-2.12,-1.88,6.35
80.84,-1.8,-2.98,12.55
80.92999,-2.04,-8.0,11.81
81.009995,1.69,-3.33,11.49
81.09999,-0.31,-1.29,5.88
81.19,1.06,0.71,3.96
81.270004,0.31,1.57,8.47
81.36,4.63,1.84,13.38
81.44,3.77,-3.77,10.87
81.53,0.59,-1.37,7.34
81.61,2.2,-2.04,5.45
81.7,-1.8,-0.98,6.35
81.78999,1.69,-1.96,12.94
81.869995,-3.18,-0.75,12.91
81.95999,1.45,-4.43,11.38
82.05,-0.86,-0.08,6.32
82.12999,-0.16,-1.37,5.02
82.22,1.77,0.82,5.3
82.3,1.45,-0.2,16.0
82.39,6.04,-9.26,12.55
82.47,-0.63,-2.79,8.55
82.56,0.63,-1.77,5.22
82.649994,-1.92,-3.14,6.71
82.729996,-1.41,-0.27,8.32
82.81999,-3.77,-0.43,13.65
82.91,-1.49,-7.18,9.45
82.98999,-0.16,-2.08,9.73
83.08,0.04,-0.39,2.98
83.16,2.2,-0.59,5.3
83.25,0.98,-0.82,11.49
83.33,4.12,2.31,8.04
83.42,-2.9,-5.26,8.24
83.509995,1.92,-0.67,7.26
83.59,1.37,-2.12,2.43
83.67999,-0.78,-0.47,8.63
83.770004,2.35,-2.31,13.53
83.84999,-4.47,-4.28,13.1
83.94,1.26,-5.49,10.71
84.020004,0.16,-0.82,5.84
84.11,1.1,-0.98,6.0
84.19,2.24,0.82,7.81
84.28,2.08,-0.75,15.65
84.369995,4.55,-7.88,10.87
84.45,0.31,-2.39,9.34
84.53999,-0.75,-0.71,5.57
84.62999,-1.96,-1.18,6.28
84.70999,-1.06,-2.59,7.77
84.8,-4.59,-0.2,11.65
84.87999,-0.78,-7.37,13.1
84.97,-1.37,-2.16,8.79
85.05,-2.55,-0.63,3.33
85.14,3.73,-0.47,5.65
85.229996,-0.31,2.0,11.02
85.31,4.24,1.06,12.59
85.399994,1.88,-4.55,6.83
85.48999,1.14,-2.43,7.65
85.56999,1.65,-3.77,8.67
85.66,-2.55,-0.47,8.16
85.73999,1.49,-4.82,11.61
85.83,-0.24,-3.3,13.77
85.91,0.63,-4.16,9.14
86.0,-0.43,-2.47,6.32
86.09,0.0,0.43,5.61
86.17,3.14,1.69,5.45
86.259995,0.47,-2.0,18.01
86.34999,1.73,-5.33,11.1
86.42999,-0.94,-2.67,8.59
86.520004,0.51,-1.37,4.94
86.59999,-0.94,-2.39,6.12
86.69,-2.04,-1.84,6.47
86.770004,-2.63,-1.18,12.83
86.86,-2.55,-5.33,8.08
86.95,0.78,-2.12,9.57
87.03,-0.55,0.16,4.24
87.119995,2.24,-1.02,5.53
87.20999,0.71,0.35,10.12
87.28999,3.69,1.53,11.81
87.37999,2.86,-4.43,7.77
87.45999,0.82,-0.2,7.18
87.55,-0.16,-5.49,8.98
87.62999,-0.43,-2.04,6.51
87.72,-0.27,-1.69,11.06
87.81,-3.65,-4.47,12.98
87.89,2.51,-4.55,11.38
87.979996,-1.22,-0.35,6.16
88.06999,1.61,-0.43,5.14
88.149994,1.61,1.37,5.96
88.23999,1.8,0.2,15.77
88.31999,6.08,-6.75,11.26
88.41,-0.55,-2.2,8.87
88.48999,0.31,-0.94,4.0
88.58,-2.55,-2.2,6.0
88.67,-1.45,-2.51,7.3
88.75,-2.79,-1.06,14.47
88.84,-1.14,-5.88,7.77
88.92999,-0.78,-2.31,9.92
89.009995,0.35,-0.27,4.24
89.09999,2.67,0.0,4.9
89.17999,2.28,0.9,11.06
89.270004,2.31,3.02,11.73
89.34999,3.33,-4.82,7.3
89.44,0.51,-1.45,6.51
89.53,1.77,-2.28,6.98
89.61,-2.12,-1.8,7.45
89.7,-0.24,-3.14,12.47
89.78999,-1.37,-0.43,11.49
89.869995,2.71,-6.08,11.22
89.95999,-1.18,-0.71,5.88
90.03999,-0.04,-1.14,7.06
90.12999,2.47,1.92,6.32
90.20999,-0.82,-0.55,13.69
90.3,3.37,-6.16,12.59
90.39,-1.02,-2.9,9.65
90.47,0.24,-1.73,4.79
90.56,-0.31,-4.2,6.51
90.649994,-2.43,-1.18,8.04
90.729996,-2.86,-0.75,12.67
90.81999,-3.22,-9.1,11.61
90.899994,2.12,-3.41,10.59
90.98999,-1.77,-0.24,4.71
91.06999,2.28,-0.24,5.45
91.16,0.86,0.78,8.63
91.25,4.28,0.27,13.85
91.33,3.14,-2.9,8.16
91.42,-0.55,-3.06,9.34
91.5,1.33,-0.35,5.02
91.59,-2.28,-1.18,6.28
91.67999,-0.63,-1.96,9.34
91.759995,-4.04,-3.49,16.08
91.84999,1.73,-6.12,6.04
91.94,-0.98,-1.8,7.45
92.020004,-0.2,0.75,4.67
92.11,0.9,0.94,3.96
92.19,2.98,-0.51,15.18
92.28,2.2,-6.24,12.04
92.36,-0.51,-1.65,9.26
92.45,0.04,-2.55,8.08
92.53999,-2.31,-4.2,6.79
92.619995,-2.35,-0.51,6.75
92.70999,-5.02,0.0,14.83
92.8,1.18,-6.39,8.43
92.87999,0.98,-1.92,9.96
92.97,-2.2,0.27,3.22
93.05,3.41,-0.27,4.35
93.14,1.29,0.51,12.16
93.22,3.26,1.14,11.02
93.31,1.1,-4.04,6.32
93.399994,1.49,-2.35,9.02
93.479996,1.77,1.45,7.41
93.56999,-0.82,-2.0,6.63
93.66,-0.82,-3.53,11.53
93.73999,-2.35,1.77,11.57
93.83,1.14,-5.96,10.98
93.91,-2.08,-1.22,8.83
94.0,-1.61,-0.43,4.43
94.08,2.71,0.71,5.18
94.17,-0.51,-2.51,11.96
94.259995,2.86,-5.45,12.83
94.34,-1.06,-2.43,6.51
94.42999,1.37,-1.73,5.96
94.520004,1.14,-1.06,5.61
94.59999,-2.43,-1.57,7.96
94.69,1.8,-2.39,12.24
94.770004,-3.61,-0.04,12.67
94.86,2.0,-4.24,10.04
94.94,-1.26,-1.88,9.18
95.03,-1.26,-0.51,6.04
95.119995,2.24,0.63,4.94
95.2,-0.39,-1.96,11.22
95.28999,2.43,-3.45,13.02
95.37999,-0.24,-3.57,7.53
95.45999,0.71,-1.22,6.35
95.55,1.88,-2.67,6.32
95.62999,-2.71,-0.98,7.41
95.72,0.2,-1.29,9.69
95.8,-4.86,0.82,13.42
95.89,-0.2,-4.63,6.67
95.979996,0.16,-2.47,10.36
96.06,-2.08,0.39,5.06
96.149994,3.22,0.86,4.63
96.23999,-0.47,-1.73,12.32
96.31999,3.92,-2.59,13.06
96.41,-1.29,-3.61,5.1
96.48999,0.31,-1.14,6.39
96.58,1.92,-2.12,6.12
96.66,-1.92,-0.71,7.73
96.75,0.12,-1.92,11.26
96.84,-3.53,-2.9,12.59
96.92,3.41,-4.0,9.81
97.009995,-0.12,-1.26,7.1
97.09999,-0.71,-0.75,5.49
97.17999,2.86,0.94,5.96
97.270004,1.53,-1.37,15.46
97.34999,5.22,-6.08,11.73
97.44,-1.65,-3.65,10.79
97.520004,-0.31,0.08,3.96
97.61,-0.43,-2.59,6.67
97.7,-1.37,-1.77,7.34
97.78,0.82,-3.41,11.96
97.869995,-5.18,-9.14,11.22
97.95999,1.73,-2.9,10.98
98.03999,-1.53,-0.71,5.49
98.12999,3.06,-0.16,4.75
98.20999,1.65,0.75,8.55
98.3,3.22,-1.53,15.46
98.37999,5.06,-7.02,12.51
98.47,-0.82,-1.73,8.39
98.56,0.98,-1.88,5.41
98.64,-1.8,-2.28,5.06
98.729996,-1.22,-1.8,8.51
98.81999,-4.39,-0.16,12.83
98.899994,0.67,-5.45,11.89
98.98999,-1.8,-0.78,8.04
99.06999,-2.35,-0.24,1.73
99.16,2.47,0.78,5.22
99.23999,1.57,-1.8,11.89
99.33,0.98,0.75,12.0
99.42,-0.08,-3.61,6.98
99.5,0.63,-2.94,9.34
99.59,1.96,-2.08,4.75
99.67999,-3.02,-0.2,7.18
99.759995,-2.35,-3.49,9.89
99.84999,-0.78,-2.31,12.71
99.92999,1.57,-6.39,12.4
100.020004,-1.06,-1.02,7.73
100.09999,-0.27,-1.06,4.2
100.19,2.04,1.26,7.81
100.28,0.98,0.31,12.94
100.36,2.35,-6.94,10.24
100.45,-0.43,-2.59,9.69
100.53999,-0.39,-0.98,4.9
100.619995,-1.45,-1.53,6.79
100.70999,-2.24,-1.88,7.18
100.78999,-3.73,-0.27,12.83
100.87999,-0.51,-8.43,11.14
100.95999,0.27,-1.88,12.0
101.05,-1.69,-0.08,2.59
101.14,3.18,0.47,4.67
101.22,0.78,-2.71,11.3
101.31,3.73,2.55,10.67
101.399994,-0.59,-4.79,7.22
101.479996,1.29,-1.73,7.85
101.56999,1.69,-1.02,5.1
101.649994,-1.41,-0.94,8.63
101.73999,0.51,-0.27,10.59
101.81999,-2.31,-2.08,13.85
101.91,2.55,-4.9,10.79
102.0,-0.82,-0.04,7.14
102.08,1.06,-0.78,4.08
102.17,1.88,1.96,5.84
102.25,1.84,0.12,14.47
102.34,1.1,-7.88,11.73
102.42999,-0.86,-3.22,9.85
102.509995,0.71,-1.1,4.39
102.59999,-2.79,-3.26,6.79
102.69,-2.28,-0.16,6.9
102.770004,-1.33,-3.26,11.81
102.86,-2.08,-10.71,11.69
102.94,1.1,-4.71,12.87
103.03,-0.75,-1.8,6.04
103.11,2.47,-0.39,4.08
103.2,0.08,1.33,9.14
103.28999,5.06,1.65,12.91
103.369995,4.51,-6.98,11.69
103.45999,0.55,-2.35,8.55
103.55,0.82,-0.04,4.63
103.62999,-2.35,-0.98,5.96
103.72,-1.26,0.39,6.75
103.8,-3.49,-1.53,12.36
103.89,-1.1,-8.59,10.28
103.97,0.78,-2.79,12.08
104.06,-1.02,0.16,3.84
104.149994,3.1,-0.08,5.57
104.229996,0.27,2.47,10.24
104.31999,4.9,1.8,10.94
104.41,0.98,-6.63,14.91
104.48999,0.08,-2.12,9.53
104.58,2.47,-1.33,6.55
104.66,-0.94,-1.53,6.39
104.75,-0.12,-1.61,8.36
104.83,-3.92,-0.75,13.14
104.92,0.24,-4.35,10.71
105.009995,-0.94,-1.14,9.38
105.09,-0.75,-0.08,3.69
105.17999,1.37,0.9,5.22
105.270004,2.63,-1.49,11.38
105.34999,3.45,2.2,10.51
105.44,-0.9,-4.94,5.61
105.520004,1.33,-0.71,6.79
105.61,1.37,1.29,2.94
105.69,-1.26,-1.53,8.32
105.78,-0.82,-0.51,10.79
105.869995,-2.04,-0.31,12.71
105.95,2.28,-3.92,9.92
106.03999,-0.51,-1.02,7.73
106.12999,1.14,-0.82,5.92
106.20999,1.57,0.94,5.69
106.3,0.2,-0.2,11.38
106.37999,1.77,0.12,12.47
106.47,0.12,-3.18,8.16
106.55,0.94,-2.0,6.35
106.64,-1.33,-1.18,4.35
106.729996,-1.1,-0.55,7.34
106.81,-0.71,-3.49,11.49
106.899994,-1.65,-0.24,12.12
106.98999,2.9,-3.53,9.69
107.06999,-0.35,-1.06,7.81
107.16,0.35,-1.18,6.16
107.23999,0.75,1.06,5.92
107.33,1.26,-0.86,11.06
107.41,1.57,3.1,10.71
107.5,0.78,-5.02,8.36
107.59,1.53,-1.96,7.65
107.67,0.43,-0.63,4.24
107.759995,-0.94,-2.04,8.28
107.84999,0.86,-0.71,9.77
107.92999,-2.08,-0.78,12.08
108.020004,2.51,-4.9,9.45
108.09999,-1.77,-1.33,9.02
108.19,-0.94,-1.06,5.18
108.270004,2.16,0.63,6.51
108.36,1.49,-2.04,10.71
108.45,4.0,3.57,9.85
108.53,2.51,-6.2,10.4
108.619995,-0.24,-1.92,8.39
108.70999,2.12,-0.71,6.51
108.78999,-2.08,-1.96,7.81
108.87999,-0.08,-0.75,7.69
108.95999,-4.79,-0.27,12.55
109.05,-1.02,-7.57,10.16
109.12999,-1.18,-2.2,11.77
109.22,-2.28,-0.12,4.63
109.31,2.79,0.08,5.22
109.39,-0.67,1.77,8.24
109.479996,4.0,-2.12,15.38
109.56999,3.77,-6.75,11.57
109.649994,0.2,-3.57,9.85
109.73999,1.88,-1.26,6.2
109.81999,-2.59,-0.94,6.28
109.91,-2.12,-1.14,7.53
109.98999,-2.55,-2.79,12.32
110.08,-2.71,-9.22,13.38
110.17,0.94,-3.69,12.98
110.25,-0.51,-1.02,5.22
110.34,1.33,0.0,4.59
110.42999,0.2,1.84,9.02
110.509995,2.9,-0.39,14.0
110.59999,5.65,-9.49,13.14
110.67999,-1.45,-1.69,10.67
110.770004,0.86,-1.53,5.88
110.84999,-1.14,-1.41,6.59
110.94,-1.53,-0.16,7.49
111.03,-1.45,-2.51,11.89
111.11,-2.98,-8.36,12.67
111.2,1.69,-2.86,12.16
111.28999,-1.26,-0.51,5.06
111.369995,2.79,-0.08,5.22
111.45999,1.22,1.53,7.1
111.53999,1.06,-0.04,13.26
111.62999,5.92,-8.75,12.79
111.70999,-1.49,-2.63,9.61
111.8,0.0,-2.04,6.24
111.89,-0.43,-1.37,6.0
111.97,-2.39,-0.59,7.53
112.06,-2.12,-2.2,13.1
112.149994,-3.45,-8.94,12.04
112.229996,0.47,-2.63,10.79
112.31999,0.43,-1.33,5.45
112.399994,1.61,-0.43,5.45
112.48999,0.43,1.65,8.98
112.56999,2.43,-0.16,13.69
112.66,3.22,-7.81,9.85
112.75,-2.0,-2.55,9.81
112.83,0.63,-0.55,6.39
112.92,-1.26,-0.47,4.12
113.0,-1.92,-0.24,8.0
113.09,-3.49,-0.71,12.12
113.17999,-1.45,-9.1,12.47
113.259995,-0.63,-2.79,12.16
113.34999,-1.22,-0.67,4.71
113.44,2.67,0.39,4.82
113.520004,0.43,1.69,9.77
113.61,2.98,-0.27,14.12
113.69,2.24,-5.92,11.69
113.78,-0.2,-2.59,9.57
113.86,1.49,-2.79,7.49
113.95,-1.33,-0.71,6.35
114.03999,-0.47,-0.94,6.39
114.119995,-4.47,-1.92,12.63
114.20999,-1.06,-8.16,12.0
114.3,-0.67,-2.0,10.83
114.37999,-2.43,-0.04,4.08
114.47,3.57,-0.47,5.61
114.55,0.94,1.37,9.1
114.64,3.8,0.63,12.75
114.72,4.59,-6.51,11.02
114.81,-0.16,-2.35,10.59
114.899994,2.0,-1.65,5.06
114.979996,-1.84,-0.86,7.41
115.06999,-0.55,1.8,5.06
115.16,-4.59,-0.86,12.71
115.23999,-2.51,-9.3,11.53
115.33,0.04,-1.61,11.69
115.41,-1.77,1.29,4.0
115.5,3.49,-1.29,6.9
115.58,1.69,1.41,8.87
115.67,2.63,1.33,14.47
115.759995,4.63,-9.14,12.63
115.84,1.26,-2.51,9.1
115.92999,2.51,-0.86,2.55
116.020004,-3.14,-0.82,6.67
116.09999,-2.24,-0.71,7.92
116.19,-3.61,-1.73,11.26
116.270004,3.14,-6.47,11.53
116.36,-2.31,-1.33,8.36
116.44,0.04,0.71,3.45
116.53,1.92,0.31,6.51
116.619995,0.43,-1.88,12.28
116.7,4.2,0.75,12.51
116.78999,0.24,-3.8,4.67
116.87999,0.51,-1.84,6.79
116.95999,1.02,-0.08,6.28
117.05,-1.69,-1.45,7.85
117.12999,-0.2,-1.61,9.14
117.22,-3.06,-1.02,12.55
117.3,3.77,-4.55,9.69
117.39,-0.71,0.08,7.45
117.479996,-2.0,0.31,6.47
117.56,1.65,1.26,6.71
117.649994,2.75,-0.78,11.96
117.73999,2.47,-4.9,10.55
117.81999,-0.08,-3.77,10.28
117.91,1.96,-1.88,5.37
117.98999,-2.28,-2.16,5.69
118.08,-2.2,-1.69,7.41
118.16,-2.9,-4.43,12.71
118.25,-3.84,-8.08,13.14
118.34,1.88,-2.98,12.4
118.42,-1.53,-0.78,5.69
118.509995,2.79,-0.16,5.3
118.59999,-0.2,2.39,8.39
118.67999,3.22,-2.0,15.73
118.770004,4.51,-8.79,13.26
118.84999,-0.39,-2.75,10.04
118.94,0.0,0.51,3.57
119.020004,-2.51,-1.37,5.18
119.11,-0.16,0.0,7.57
119.2,-5.26,0.98,11.3
119.28,-0.31,-8.59,9.38
119.369995,-0.94,-1.37,11.57
119.45999,-0.59,-0.59,3.49
119.53999,2.9,-0.16,6.08
119.62999,0.39,1.02,8.98
119.70999,5.3,2.2,12.83
119.8,1.88,-5.92,10.32
119.87999,1.1,-2.16,8.16
119.97,1.53,-1.73,5.33
120.06,-1.96,-1.37,7.65
120.14,0.0,-1.49,9.49
120.229996,-4.16,-0.71,11.53
120.31999,2.16,-6.79,9.49
120.399994,-2.16,-1.33,8.67
120.48999,-0.94,0.59,3.49
120.56999,3.37,0.31,5.49
120.66,1.57,-2.28,14.4
120.73999,1.84,2.43,8.32
120.83,-0.47,-7.61,10.71
120.92,2.04,-1.29,6.16
121.0,0.78,-2.94,4.55
121.09,-2.94,-1.02,8.36
121.17999,-0.94,-2.59,10.43
121.259995,-1.41,-2.28,11.77
121.34999,2.63,-5.88,11.14
121.42999,-0.82,-1.18,7.96
121.520004,0.47,-0.24,5.33
121.59999,1.61,1.69,6.94
121.69,1.49,-2.28,15.77
121.78,3.22,-5.33,11.61
121.86,-2.12,-2.86,8.87
121.95,0.04,-0.9,6.39
122.03999,-0.59,-2.28,4.94
122.119995,-2.63,0.31,7.18
122.20999,-3.33,-2.79,13.49
122.28999,-0.51,-8.55,10.04
122.37999,0.71,-3.18,13.06
122.45999,-1.53,-0.27,3.84
122.55,2.75,0.35,4.59
122.64,0.67,0.71,9.65
122.72,4.63,2.98,10.83
122.81,2.86,-8.87,12.0
122.899994,-0.86,-1.88,9.61
122.979996,2.12,-0.98,5.65
123.06999,-1.84,-1.65,7.65
123.149994,-0.35,-0.98,11.3
123.23999,-4.08,0.2,11.41
123.31999,1.41,-7.18,10.47
123.41,-3.45,-2.0,10.2
123.5,0.0,-0.47,4.63
123.58,2.75,0.27,4.63
123.67,0.75,-0.43,13.89
123.75,2.16,4.67,9.3
123.84,0.35,-4.98,7.26
123.92999,2.0,-0.67,7.96
124.009995,-0.08,-1.14,5.65
124.09999,-1.33,-0.82,7.22
124.19,-1.02,-2.39,10.75
124.270004,-1.84,-1.61,11.38
124.36,2.55,-5.02,10.47
124.44,-0.04,-0.55,7.18
124.53,0.43,-0.43,6.35
124.61,1.53,0.82,5.61
124.7,1.14,-0.27,12.55
124.78999,0.51,-4.35,11.26
124.869995,-0.12,-4.24,8.67
124.95999,-0.2,-2.08,7.41
125.05,-1.14,-2.39,6.12
125.12999,-1.45,0.12,6.43
125.22,-1.57,-5.41,11.41
125.3,-3.69,-8.16,12.08
125.39,0.59,-3.37,12.36
125.47,-1.06,-0.71,3.49
125.56,3.3,-0.08,5.41
125.649994,-0.24,2.31,7.41
125.729996,2.79,-2.98,15.26
125.81999,4.12,-6.47,13.49
125.91,0.43,-2.59,10.55
125.98999,0.2,-0.51,5.77
126.08,-1.26,-2.43,6.63
126.16,-1.45,0.08,9.49
126.25,-5.73,0.16,12.32
126.33,0.9,-4.71,9.22
126.42,-0.55,-2.24,10.16
126.509995,-1.8,0.35,2.08
126.59,2.9,0.16,5.84
126.67999,-0.31,-0.59,11.49
126.770004,2.98,2.9,10.59
126.84999,2.35,-5.33,6.51
126.94,1.02,0.27,7.65
127.020004,1.33,0.43,5.57
127.11,-1.26,-0.94,6.86
127.19,-0.39,-0.2,10.63
127.28,-2.35,-0.51,13.14
127.369995,1.65,-5.06,10.2
127.45,-0.82,-1.1,7.81
127.53999,-0.08,-0.12,5.88
127.62999,1.8,1.26,5.57
127.70999,1.92,-1.26,12.47
127.8,1.37,2.0,10.98
127.87999,0.94,-6.43,9.1
127.97,1.41,-1.84,6.67
128.05,-0.08,-0.98,6.55
128.14,-1.37,0.16,8.04
128.23,-0.35,-5.02,10.36
128.31,-2.31,-2.47,11.69
128.4,2.12,-4.43,10.9
128.48999,0.67,-0.04,5.37
128.56999,2.08,-0.78,5.49
128.66,-0.2,3.37,8.08
128.73999,2.24,-1.77,13.85
128.83,3.61,-7.37,13.61
128.91,-1.29,-2.94,9.06
129.0,0.94,-0.94,6.59
129.09,-1.61,-0.98,6.63
129.17,-0.63,0.0,7.73
129.26,-5.37,0.43,12.24
129.34999,-0.9,-8.87,10.71
129.43,-0.12,-2.04,11.18
129.52,-1.06,0.43,2.98
129.59999,2.47,0.12,6.9
129.69,0.08,0.59,10.08
129.77,4.9,1.8,10.51
129.86,2.04,-4.2,9.22
129.95,-0.59,-2.71,9.26
130.03,1.92,-0.9,4.12
130.12,-1.88,-1.06,7.85
130.20999,0.24,-0.78,9.89
130.29,-2.39,-2.82,12.12
130.37999,1.1,-5.14,9.38
130.45999,-1.45,-0.67,7.3
130.55,-0.43,-0.2,6.86
130.62999,1.8,1.37,5.73
130.72,1.29,0.78,11.57
130.81,3.84,-7.61,13.61
130.89,-1.61,-2.47,9.3
130.98,-0.63,-1.57,6.04
131.06999,-1.45,-2.0,5.3
131.15,-1.73,1.14,7.14
131.23999,-2.24,-1.57,12.16
131.31999,-1.33,-10.16,10.2
131.41,0.98,-3.3,11.57
131.48999,-1.1,-0.04,4.2
131.58,2.31,0.47,4.94
131.67,1.02,0.67,9.34
131.75,4.63,1.77,11.53
131.84,3.06,-7.65,9.1
131.93,0.98,-1.02,6.43
132.01,1.57,0.04,3.84
132.09999,-1.92,-1.33,9.06
132.18,0.59,-0.47,10.55
132.27,-1.77,-1.61,11.89
132.34999,3.49,-4.94,9.73
132.44,-1.37,-0.86,6.55
132.53,1.45,-0.2,5.57
132.61,0.04,1.22,5.81
132.7,2.9,-0.51,12.63
132.79,1.77,-3.49,8.67
132.87,-1.49,-2.59,9.3
132.95999,0.94,-3.45,7.65
133.04,-1.61,-2.55,6.51
133.12999,-1.45,-0.24,6.9
133.20999,-0.43,-4.51,12.47
133.3,-1.96,-10.71,10.75
133.39,-0.04,-2.9,11.06
133.47,-0.08,-0.55,4.59
133.56,1.96,0.0,5.69
133.65,0.67,0.82,7.92
133.73,4.04,-0.71,13.57
133.81999,3.96,-6.94,14.63
133.9,0.78,-3.49,9.77
133.98999,1.1,-2.2,6.94
134.06999,-2.24,-0.35,6.47
134.16,-0.67,-0.71,8.47
134.25,-4.9,-1.18,12.24
134.33,1.65,-7.77,9.18
134.42,-2.0,-1.26,10.59
134.5,-2.28,-0.04,3.49
134.59,3.33,0.47,6.0
134.68,0.08,1.33,10.83
134.76,5.02,2.75,11.26
134.84999,3.69,-7.69,11.81
134.94,0.9,-2.0,8.94
135.02,2.47,-1.14,6.28
135.11,-2.28,-1.84,7.73
135.19,0.12,-0.86,8.98
135.28,-4.2,-0.31,12.08
135.36,2.0,-7.77,8.79
135.45,-0.39,-0.98,8.59
135.54,-2.51,-1.02,4.47
135.62,3.06,-0.31,5.14
135.70999,1.73,0.24,10.36
135.8,4.16,2.59,10.71
135.87999,2.79,-6.59,11.81
135.97,0.71,-2.71,8.39
136.05,1.33,0.55,5.45
136.14,-1.18,-2.2,7.26
136.22,0.08,-1.26,10.36
136.31,-4.59,-1.33,11.96
136.4,-0.08,-5.45,8.04
136.48,-1.69,-2.08,9.53
136.56999,-1.41,-0.39,3.65
136.66,2.94,-0.04,6.24
136.73999,1.77,0.2,10.71
136.83,2.98,3.92,9.06
136.91,3.33,-5.84,10.9
137.0,1.26,-2.51,8.2
137.08,0.59,-0.16,6.16
137.17,-2.16,-1.29,7.18
137.26,0.43,-1.02,10.63
137.34,-2.59,-1.02,13.77
137.43,0.51,-6.59,10.36
137.52,-1.8,-0.59,8.59
137.59999,0.16,0.78,4.51
137.69,1.65,0.82,5.53
137.77,2.24,-2.79,12.32
137.86,1.69,1.29,12.83
137.94,1.53,-4.43,5.61
138.03,1.18,-0.67,6.98
138.12,0.2,-0.75,6.24
138.2,-1.65,-0.55,6.71
138.29,-0.63,-3.3,11.38
138.37999,-2.55,-2.98,12.16
138.45999,1.26,-5.14,8.79
138.55,-0.2,-1.69,6.86
138.62999,2.28,-1.18,7.06
138.72,2.35,1.88,5.96
138.8,0.27,-1.45,14.87
138.89,2.35,0.94,8.08
138.98,-0.51,-4.79,8.59
139.06,2.94,-2.86,6.32
