,walk_5_1.csv,,
EXPERIMENT TIME:,05/06/2023 20:34,,
ACTIVITY TYPE:,Walking,,
COUNT OF ACTUAL STEPS:,98,,
,,,
Time [sec],ACC X,ACC Y,ACC Z
0,5.88,-5.22,-6.86
0.041,6.12,-5.26,-6.47
0.082,6.28,-5.18,-6.63
0.123,5.49,-4.59,-6.12
0.164,5.65,-4.43,-6.67
0.205,7.1,-5.22,-6.86
0.246,6.35,-4.31,-6.51
0.287,6.28,-4.59,-6.67
0.328,6.98,-5.92,-6.12
0.369,5.57,-5.1,-6.63
0.41,6,-5.26,-6.47
0.451,6.71,-4.39,-5.84
0.492,6.35,-3.41,-5.61
0.533,7.57,-4.43,-6.28
0.574,7.45,-4.55,-6.43
0.615,6.63,-4.39,-5.77
0.656,6.63,-4.39,-6.2
0.697,6.75,-4.47,-6.39
0.738,6.83,-4.2,-5.88
0.779,5.81,-3.69,-5.41
0.82,6.59,-4.08,-5.37
0.861,7.69,-4.47,-5.1
0.902,8.39,-4.12,-5.96
0.943,8.79,-4.86,-9.45
0.984,10.36,-8.59,-10.79
1.025,4.59,-8,-13.1
1.066,0.94,-5.92,-6.86
1.107,3.41,-5.1,-7.53
1.148,7.34,-6.28,-4.67
1.189,7.77,-4.94,-6.98
1.332,3.69,-1.88,-5.33
1.599,4.24,-8.79,-15.38
1.64,3.06,-6.86,-9.3
1.681,2.12,-2.55,-5.57
1.722,2.24,-1.1,-5.65
1.763,1.61,-3.26,-8.24
1.804,6.2,-6.32,-6.86
1.845,6.2,-5.96,-7.61
1.886,5.41,-3.26,-6.43
1.927,5.96,-2.24,-4.35
1.968,7.02,-2.39,-3.1
2.009,7.02,-2.12,-4.12
2.05,7.1,-4.12,-5.33
2.091,10.16,-6.59,-5.33
2.132,9.57,-6.32,-10.08
2.173,7.57,-8.59,-16.2
2.214,4.79,-10.04,-14.47
2.255,1.53,-5.22,-6.98
2.296,2.24,-2.71,-5.45
2.337,3.61,-1.88,-7.85
2.378,5.41,-4.86,-2.08
2.419,8.08,-3.96,-4.94
2.46,2.47,-1.18,-4.67
2.501,4,-3.18,-0.78
2.542,5.33,-5.14,-3.41
2.583,5.02,-6.9,-7.92
2.624,8.36,-13.22,-5.06
2.665,8.36,-11.06,-12.87
2.706,6.12,-8.63,-17.69
2.747,2.98,-1.88,-9.41
2.788,3.84,-0.47,-6.04
2.829,3.02,-0.43,-3.18
2.87,4,-2.24,-6.2
2.911,7.3,-4.86,-6.71
2.952,4.28,-6.08,-5.26
2.993,5.02,-5.53,-4.82
3.034,5.96,-6,-3.57
3.075,6.28,-4.12,-3.96
3.116,7.57,-4.67,-5.84
3.157,11.81,-5.73,-5.22
3.198,9.89,-5.84,-10.24
3.239,5.81,-3.37,-14.47
3.28,4.55,-6.94,-14.28
3.321,5.57,-11.1,-11.53
3.362,4.12,-7.02,-8.55
3.403,4.2,-1.77,-4.43
3.444,1.77,-2,-2.55
3.485,5.06,-1.18,-2.82
3.526,4.43,-0.55,-3.14
3.567,4.55,-2.47,-3.84
3.608,7.49,-5.81,-5.41
3.649,5.33,-9.18,-8.9
3.69,7.18,-14.95,-4.98
3.731,4.35,-8.75,-8.43
3.772,4.28,-6.67,-13.14
3.813,2.94,-6,-14.63
3.854,5.1,-3.14,-9.49
3.895,5.77,-1.22,-6.98
3.936,2.86,-2.51,-1.88
3.977,4.55,-3.1,-7.1
4.018,4.86,-4.12,-6.79
4.059,6.94,-6,-5.49
4.1,7.81,-3.26,-6.47
4.141,6.75,-2.51,-4.35
4.182,4.82,-1.33,-4.2
4.223,8.59,-5.65,-4.75
4.297,11.26,-7.22,-8.79
4.346,6,-6.16,-13.38
4.387,3.61,-6.35,-12.83
4.428,4.43,-7.53,-7.53
4.469,5.77,-4.82,-6
4.51,4.59,-2.16,-6
4.551,2.86,-1.92,-4.63
4.592,4.43,-1.69,-2.82
4.633,3.22,-2.28,-2.43
4.674,4.63,-3.61,-2.86
4.715,7.45,-6.24,-5.65
4.756,6.83,-8.83,-8.75
4.797,7.88,-12.79,-5.88
4.838,3.73,-8.75,-8.36
4.879,2.79,-7.22,-17.89
4.92,4.47,-7.61,-13.42
4.961,3.96,-1.37,-7.37
5.002,2.63,-0.12,-4.35
5.043,2.67,-3.84,-4.47
5.084,5.53,-2.39,-6.83
5.125,6.75,-4.04,-4.59
5.166,7.22,-4.2,-4.67
5.207,7.69,-3.33,-4.04
5.248,6.16,-2.55,-5.02
5.289,7.41,-4.71,-6.32
5.33,11.73,-8.28,-5.57
5.371,9.1,-7.37,-8.94
5.412,8,-4.9,-12.51
5.453,4.82,-4.24,-12.91
5.494,5.06,-7.77,-9.61
5.535,3.37,-5.61,-7.37
5.576,4.55,-3.61,-5.41
5.617,3.73,-2.86,-4.39
5.658,5.3,-2.9,-4.82
5.699,3.1,-1.96,-4.35
5.74,2.98,-2.94,-2.59
5.781,5.33,-5.77,-2.94
5.822,7.41,-6.32,-8
5.863,11.14,-12.08,-7.65
5.904,7.61,-11.38,-8.87
5.945,4.47,-7.69,-17.06
5.986,2.35,-5.81,-9.45
6.027,2.28,-1.65,-5.73
6.068,3.41,-0.63,-4.94
6.109,3.92,-6.47,-5.92
6.15,7.85,-4.35,-7.3
6.191,6.55,-6.71,-6.98
6.232,5.69,-3.69,-3.88
6.273,6.24,-2.79,-3.49
6.314,6,-2.59,-4.24
6.355,8,-4.98,-5.88
6.396,11.73,-7.37,-6.39
6.437,10.79,-7.3,-8.2
6.478,7.92,-4.98,-12.2
6.519,4.31,-4.71,-13.42
6.56,4,-7.53,-9.61
6.601,3.41,-6,-6.43
6.642,5.33,-3.88,-6.2
6.683,7.61,-4.43,-3.88
6.724,4.67,-2.43,-5.69
6.765,2.51,-1.49,-2.12
6.89,4.2,-2.51,-0.04
7.093,2.24,-2.08,-5.77
7.134,3.18,0.04,-5.84
7.175,2.24,-3.06,-7.57
7.216,7.61,-4.98,-6.35
7.257,7.92,-4.47,-9.92
7.298,5.1,-3.57,-3.69
7.339,5.3,-3.22,-3.84
7.38,6.83,-3.45,-4.16
7.421,7.88,-4.12,-5.73
7.462,11.14,-6.04,-5.45
7.503,10.2,-6.63,-8
7.544,8.47,-5.22,-13.89
7.585,4.04,-5.53,-14.79
7.626,3.45,-8.87,-10.79
7.667,2.75,-6.98,-7.37
7.708,3.77,-4.82,-5.61
7.749,7.02,-4.75,-3.69
7.79,4.51,-2.28,-4.28
7.831,4.04,-0.31,-1.02
7.872,6,-1.49,-0.04
7.913,7.96,-3.92,-2.2
7.954,8.9,-7.73,-9.26
7.995,6.75,-10.71,-9.65
8.036,9.06,-12.4,-16.75
8.077,2.12,-7.49,-10.75
8.118,1.33,-3.26,-4.71
8.159,2.39,0.43,-4.16
8.2,2.63,-1.49,-2.71
8.241,3.77,-2.86,-8.43
8.282,11.38,-5.73,-3.61
8.323,5.61,-3.61,-6.12
8.364,6,-3.1,-4.51
8.405,6.51,-3.69,-3.57
8.446,5.69,-3.8,-5.37
8.487,9.18,-5.49,-6.12
8.528,11.65,-6.16,-8.16
8.569,11.57,-5.69,-12.55
8.61,6.86,-5.73,-15.18
8.651,3.06,-5.53,-8.79
8.692,1.41,-3.53,-5.69
8.733,2.67,-4.35,-4.82
8.774,5.49,-6.28,-4.94
8.815,8.32,-4.08,-4.94
8.856,4.31,-1.37,-4.35
8.897,3.14,-1.29,-2.47
8.938,5.06,-3.41,-1.06
8.979,6.83,-4.55,-4.98
9.02,13.22,-10.98,-9.96
9.061,10.47,-13.49,-8.39
9.102,5.49,-8,-18.44
9.143,3.88,-5.61,-8.51
9.184,2.2,-1.92,-5.1
9.225,2.51,-0.27,-4.55
9.266,1.22,0.67,-7.88
9.307,6.16,-4.82,-6.35
9.348,8,-5.02,-7.34
9.389,5.22,-3.1,-5.1
9.43,6,-2.35,-3.96
9.471,7.45,-3.18,-4.59
9.512,8.39,-3.92,-5.81
9.553,9.92,-6.08,-5.96
9.594,8.98,-7.34,-6.79
9.635,8.51,-5.65,-17.26
9.676,4.79,-4.71,-13.06
9.717,6.51,-7.96,-8.2
9.758,2.98,-3.84,-7.57
9.799,5.14,-2.12,-5.73
9.84,4.79,-2.98,-3.3
9.881,4.63,-2.35,-4.16
9.922,1.69,-1.84,-3.37
9.963,4.35,-4.24,-1.29
10.004,6.35,-6.32,-5.41
10.045,6.67,-7.34,-8.08
10.086,11.1,-10.94,-5.49
10.127,8.04,-9.06,-7.02
10.168,6.24,-7.81,-18.67
10.209,3.06,-5.84,-10.9
10.25,3.02,-1.49,-6.12
10.291,3.57,-1.33,-4.75
10.332,1.29,-4.71,-4.63
10.373,5.49,-4.59,-7.81
10.414,5.77,-4.47,-5.65
10.455,4.39,-3.92,-5.1
10.496,6.47,-3.65,-4.59
10.537,7.49,-3.26,-4.63
10.578,7.1,-3.57,-5.37
10.619,9.81,-5.3,-6.39
10.66,10.94,-5.96,-6.94
10.701,10.08,-4.82,-13.1
10.742,5.88,-5.26,-16.79
10.783,4.47,-7.61,-10.36
10.824,2.63,-4.98,-6.75
10.865,3.18,-3.96,-5.61
10.906,3.57,-3.49,-5.33
10.947,7.18,-4.47,-4.04
10.988,4.04,-2.31,-4.24
11.029,3.53,-2.2,-2.67
11.07,5.57,-5.22,-2.94
11.111,6.16,-6.32,-7.06
11.152,10.67,-10.16,-7.41
11.193,8.43,-10.87,-4.2
11.234,4.98,-6.2,-13.53
11.275,5.33,-7.57,-15.61
11.316,3.53,-3.1,-10.12
11.357,4.55,-1.57,-5.96
11.398,2.12,-0.2,-3.1
11.439,3.77,-3.53,-6.47
11.48,7.88,-5.33,-7.22
11.521,6.79,-4,-4.28
11.562,5.73,-2.12,-4.59
11.603,6.67,-2.63,-2.63
11.644,7.45,-4.2,-4.55
11.685,8.83,-5.53,-6.2
11.726,11.26,-7.85,-6.43
11.767,9.18,-5.49,-10.47
11.808,4.98,-2.86,-14.16
11.849,4.67,-7.26,-11.85
11.89,5.73,-7.81,-8.39
11.931,4.04,-5.18,-7.65
11.972,6,-3.18,-5.77
12.013,5.1,-1.96,-4.63
12.054,2.9,-1.33,-3.61
12.095,4.04,-2.31,-1.77
12.136,4.28,-3.02,-1.96
12.184,7.49,-6.32,-5.37
12.259,9.61,-11.69,-7.65
12.31,4.9,-7.49,-15.3
12.587,6.79,-4.47,-4.63
12.628,6.47,-2.63,-4.71
12.669,7.41,-2.63,-3.18
12.71,6.9,-2.51,-4.16
12.751,7.06,-4.24,-4.98
12.792,11.38,-7.14,-5.84
12.833,10.2,-6.94,-10.2
12.874,6.98,-4.31,-13.61
12.915,5.18,-5.96,-13.18
12.956,5.49,-7.06,-8.39
12.997,3.49,-5.02,-6.39
13.038,4.16,-2.9,-4.86
13.079,5.22,-3.84,-3.96
13.12,4.24,-2.35,-4.51
13.161,3.02,-1.65,-2.98
13.202,5.41,-3.73,-1.49
13.243,6.9,-4.9,-5.22
13.284,8.04,-7.96,-9.92
13.325,8.2,-11.96,-6.35
13.366,3.73,-8.36,-12.2
13.407,5.37,-7.06,-16.63
13.448,3.92,-5.02,-10.67
13.489,3.57,-1.02,-5.96
13.53,2.39,0.04,-4.08
13.571,2.94,-2.63,-6.71
13.612,9.02,-5.45,-6.75
13.653,6.9,-4.55,-6.12
13.694,6.24,-3.92,-3.8
13.735,6.79,-3.26,-3.8
13.776,6.28,-3.3,-4.43
13.817,6.94,-5.06,-6.51
13.858,12.55,-8.2,-6.94
13.899,9.81,-5.73,-12.2
13.94,5.37,-4.24,-13.93
13.981,3.33,-6.75,-11.26
14.022,3.57,-7.18,-8
14.063,3.65,-5.41,-6.71
14.104,4.35,-2.39,-5.69
14.145,6.43,-3.22,-4.94
14.186,4.35,-1.26,-3.96
14.227,3.14,-0.9,-1.92
14.268,5.06,-3.3,-1.29
14.309,7.61,-5.92,-4.2
14.35,9.57,-9.61,-11.06
14.391,9.73,-14.32,-4.35
14.432,3.37,-7.1,-12.98
14.473,4.04,-5.1,-17.5
14.514,3.77,-4.08,-9.61
14.555,3.65,-1.77,-6.9
14.596,1.96,-2.2,-2.39
14.637,5.57,-4.51,-6.16
14.678,5.1,-4.47,-7.49
14.719,5.33,-4.98,-4.98
14.76,5.69,-4.2,-4.59
14.801,6.55,-3.8,-4.35
14.842,7.37,-3.22,-4.94
14.883,9.77,-4.31,-6.12
14.924,12.24,-5.65,-4.86
14.965,9.26,-5.37,-8.71
15.006,6.39,-4.31,-12.51
15.047,5.06,-5.26,-13.73
15.088,5.06,-8.94,-11.45
15.129,3.69,-7.02,-7.92
15.17,4.08,-2.63,-6
15.211,4.79,-2.86,-4.08
15.252,5.96,-2.59,-4.63
15.293,4.12,-0.78,-3.77
15.334,3.96,-2.24,-1.96
15.375,5.06,-3.84,-4
15.416,6.79,-5.96,-7.65
15.457,8.63,-11.02,-10.75
15.498,6.35,-12.32,-4.51
15.539,2.94,-8,-9.57
15.58,7.14,-7.73,-16.55
15.621,2.59,-5.53,-12.32
15.662,4.35,-1.88,-7.69
15.703,2.55,-1.37,-4.9
15.744,3.37,-4.86,-4.43
15.785,5.14,-3.33,-7.45
15.826,5.26,-4.31,-6.2
15.867,7.22,-5.92,-4.79
15.908,7.06,-3.92,-4.55
15.949,6.28,-2.75,-3.57
15.99,6.55,-2.9,-5.37
16.031,10.04,-5.41,-5.69
16.072,10.71,-6.86,-5.14
16.113,7.96,-6,-9.34
16.154,6.35,-3.53,-15.46
16.195,4.39,-7.06,-12.08
16.236,5.14,-7.57,-9.22
16.277,4.24,-5.1,-7.37
16.318,5.84,-2.51,-5.88
16.359,6.16,-3.33,-4.24
16.4,4.28,-1.26,-5.37
16.441,2.71,0.08,-4.28
16.482,3.26,-2.67,-1.26
16.523,6.67,-7.26,-4.2
16.564,6.59,-8.2,-10.63
16.605,7.96,-11.69,-8.16
16.646,6.28,-10.32,-6.16
16.687,5.33,-6.55,-18.79
16.728,3.26,-6.08,-12
16.769,4.98,-2.04,-7.41
16.81,5.06,-0.31,-7.22
16.851,0.94,-5.14,-2.43
16.892,5.1,-4.24,-6.86
16.933,4.16,-4.9,-6.2
16.974,5.22,-2.39,-5.57
17.015,6.67,-4.04,-3.84
17.056,7.22,-3.18,-5.1
17.097,7.96,-3.3,-5.49
17.138,11.1,-5.37,-4.86
17.179,10.28,-6,-6.2
17.22,7.14,-5.22,-13.18
17.261,4.43,-4.98,-14.87
17.302,6.32,-9.65,-10.67
17.343,4.79,-6.71,-8.9
17.384,5.61,-3.37,-6.28
17.425,4.75,-1.92,-3.8
17.466,5.45,-1.96,-3.18
17.507,4.47,-1.29,-4.24
17.548,3.65,-2.75,-3.41
17.645,4.63,-4.47,-2.59
17.792,5.14,-9.06,-10.04
17.91,4.55,-7.77,-9.96
18.04,5.81,-6,-5.1
18.081,5.65,-4.47,-4.12
18.122,7.02,-3.77,-4.35
18.163,6.32,-2.79,-3.57
18.204,6.35,-3.41,-5.3
18.245,11.06,-6.63,-6.08
18.286,10,-7.37,-6.2
18.327,7.73,-5.77,-11.53
18.368,4.04,-3.3,-13.81
18.409,3.92,-7.77,-10.83
18.45,5.57,-8.51,-8.2
18.491,4.79,-5.49,-7.92
18.532,4.31,-2.59,-4.67
18.573,5.92,-3.26,-3.84
18.614,3.96,-1.06,-4.12
18.655,2.86,-1.26,-2.59
18.696,4.39,-3.26,-2.08
18.737,7.1,-6.39,-6.12
18.778,7.57,-10.71,-12.2
18.819,6.94,-14.28,-4.28
18.86,4.63,-7.26,-11.26
18.901,5.53,-7.14,-15.65
18.942,4.08,-3.88,-9.73
18.983,3.53,0.2,-7.53
19.024,1.57,-0.98,-3.49
19.065,3.77,-3.65,-5.81
19.106,5.49,-4.63,-7.41
19.147,5.1,-6.86,-4.98
19.188,5.96,-5.33,-4.59
19.229,5.92,-4.28,-4.08
19.27,6.12,-2.94,-4.12
19.311,8.39,-4.94,-5.65
19.352,11.34,-6.47,-6.08
19.393,9.3,-6.98,-7.61
19.434,8.47,-5.26,-13.73
19.475,3.77,-3.06,-14.83
19.516,4.2,-8.98,-8.2
19.557,3.65,-5.61,-7.26
19.598,5.84,-3.41,-6.63
19.639,5.41,-4.39,-4.82
19.68,4.28,-2.55,-5.22
19.721,2.67,-1.57,-3.77
19.762,3.49,-3.26,-1.06
19.803,5.3,-5.61,-4.43
19.844,7.3,-7.92,-9.81
19.885,9.38,-11.14,-6.55
19.926,7.22,-9.57,-8.98
19.967,2.9,-5.96,-16.24
20.008,3.41,-6,-9.85
20.049,3.26,-1.84,-6.55
20.09,3.33,-0.51,-5.33
20.131,2.79,-4.82,-3.45
20.172,6.32,-5.18,-7.73
20.213,5.45,-5.57,-7.49
20.254,4.67,-5.33,-5.26
20.295,5.57,-4.47,-4.9
20.336,7.53,-3.69,-4.59
20.377,7.18,-3.22,-5.18
20.418,9.34,-3.65,-4.86
20.459,10.67,-6.39,-6.94
20.5,8.39,-6.28,-14.08
20.541,4.94,-5.1,-14.4
20.582,2.75,-7.61,-10.83
20.623,2.9,-6.71,-8.63
20.664,6,-5.14,-7.02
20.705,5.22,-2.79,-5.45
20.746,4.67,-2.51,-4.75
20.787,4.08,-1.14,-3.02
20.828,2.9,-1.26,-2.16
20.869,4.98,-3.77,-2.75
20.91,7.73,-6.75,-7.37
20.951,8.83,-10.08,-13.02
20.992,8.08,-14.16,-5.06
21.033,4,-8.24,-15.61
21.074,2.67,-7.02,-16.08
21.115,3.02,-3.1,-8.43
21.156,4.47,-0.9,-6.35
21.197,1.69,-1.14,-4.98
21.238,4.2,-4.55,-5.92
21.279,6.16,-4.75,-6.98
21.32,5.57,-4.9,-6.28
21.361,6.04,-4.16,-4.67
21.402,6.79,-3.02,-4.28
21.443,6.55,-2.67,-4.82
21.484,8.24,-4.75,-6.47
21.525,10.98,-6.71,-5.81
21.566,9.34,-6.32,-9.92
21.607,7.37,-4.04,-13.53
21.648,5.53,-7.69,-13.38
21.689,2.79,-6.2,-9.92
21.73,3.41,-5.06,-5.96
21.771,5.14,-3.45,-5.26
21.812,4.04,-2.98,-5.02
21.853,5.84,-2.39,-5.1
21.894,3.53,-1.1,-3.41
21.935,3.41,-2.9,-1.84
21.976,5.37,-5.77,-4
22.017,6.08,-7.57,-8.79
22.058,8.71,-9.92,-10.94
22.099,9.61,-13.1,-5.81
22.14,4.67,-7.06,-14.4
22.181,3.41,-5.96,-11.38
22.222,3.26,-1.49,-6.63
22.263,3.84,0.2,-5.06
22.304,3.06,-4.24,-6.47
22.345,6.08,-5.57,-6.35
22.386,6.9,-5.77,-9.14
22.427,6,-5.22,-5.22
22.468,4.55,-2.94,-4.59
22.509,4.59,-2.2,-3.84
22.55,6.24,-4.47,-6.08
22.591,8.71,-6.86,-6.59
22.632,8.47,-5.88,-5.22
22.673,8.63,-5.26,-5.73
22.714,7.02,-3.92,-13.57
22.755,5.69,-5.33,-14.83
22.796,6.32,-9.1,-10.24
22.837,3.53,-7.57,-8.32
22.878,3.92,-4.67,-5.96
22.919,4,-2.31,-5.06
22.96,5.53,-2.67,-4.98
23.001,4.82,-1.88,-5.14
23.042,2.16,-2.47,-4.71
23.083,3.77,-4.39,-4.47
23.28,5.41,-6.75,-5.22
23.471,8.32,-8.9,-7.26
23.534,8.79,-6.59,-6.35
23.575,5.33,-4.08,-5.61
23.616,5.1,-2.79,-4.86
23.657,6.55,-3.06,-4
23.698,7.06,-2.86,-4.82
23.739,6.39,-3.96,-5.22
23.78,7.34,-6.24,-6.16
23.821,8.43,-7.34,-5.33
23.862,8.16,-6.16,-8.75
23.903,9.92,-5.33,-13.53
23.944,6.67,-4.9,-15.3
23.985,5.45,-6.79,-8.94
24.026,4.2,-3.77,-5.77
24.067,3.41,-2.35,-3.61
24.108,3.37,-1.84,-6
24.149,7.88,-5.3,-5.06
24.19,4.86,-3.06,-7.92
24.231,0.63,-2.35,-5.41
24.272,2.35,-5.1,-2.43
24.313,4.47,-7.49,-5.45
24.354,5.84,-7.45,-7.41
24.395,10.28,-8.63,-5.57
24.436,9.57,-9.14,-4.2
24.477,7.53,-6.63,-12.79
24.518,2.35,-7.49,-16.71
24.559,2.82,-3.96,-7.34
24.6,4.39,0.16,-4.51
24.641,2.2,-0.94,-5.92
24.682,3.37,-4.39,-7.81
24.723,8.55,-6.2,-4.94
24.764,5.57,-4.24,-5.84
24.805,5.84,-2.39,-4.98
24.846,6.83,-3.1,-3.22
24.887,6.59,-3.53,-4.71
24.928,7.3,-5.1,-6.32
24.969,9.69,-6.79,-5.73
25.01,9.06,-6.63,-6.79
25.051,8.98,-4.86,-12.87
25.092,5.45,-3.41,-13.45
25.133,5.53,-8.32,-8.79
25.174,4.86,-5.88,-7.88
25.215,4.39,-2.98,-5.14
25.256,3.88,-1.33,-5.65
25.297,6.08,-4.24,-4.35
25.338,4.28,-2.35,-5.77
25.379,1.61,-3.18,-4.16
25.42,3.61,-5.61,-1.61
25.461,5.18,-6.9,-6.04
25.502,5.61,-6.79,-7.26
25.543,11.1,-10.55,-6.47
25.584,7.22,-8.55,-5.88
25.625,8.28,-7.57,-14.83
25.666,1.29,-7.45,-15.06
25.707,3.77,-3.57,-9.02
25.748,3.88,-0.67,-4.12
25.789,1.69,-1.06,-2.16
25.83,2.2,-3.88,-9.45
25.871,7.88,-5.81,-7.61
25.912,7.61,-5.96,-5.77
25.953,5.92,-4.16,-3.73
25.994,5.14,-1.92,-3.53
26.035,6.59,-2.63,-3.57
26.076,7.92,-4.98,-6
26.117,10.9,-6.59,-5.77
26.158,8.79,-6.63,-8.71
26.199,7.88,-4.71,-13.45
26.24,5.06,-4.59,-14.24
26.281,4.9,-8.83,-9.69
26.322,3.57,-6.16,-7.14
26.363,5.1,-2.12,-6.35
26.404,5.02,-3.33,-4.67
26.445,6.9,-3.06,-5.18
26.486,2.51,-1.14,-4.63
26.527,2.2,-2.35,-1.96
26.568,4.67,-5.06,-1.84
26.609,6.55,-6.75,-7.92
26.65,9.96,-10.24,-10.32
26.691,9.06,-12.2,-7.34
26.732,5.22,-7.18,-16.2
26.773,2.79,-7.49,-11.96
26.814,2.67,-3.3,-7.22
26.855,3.26,-0.82,-5.45
26.896,1.77,-0.75,-7.02
26.937,4.39,-4.47,-6.63
26.978,8.83,-6.2,-6.67
27.019,5.18,-4.55,-7.14
27.06,5.14,-3.69,-4.67
27.101,5.81,-3.18,-4
27.142,7.3,-3.65,-4.71
27.183,7.96,-5.18,-6.63
27.224,9.92,-6.39,-5.88
27.265,9.53,-6.98,-6.59
27.306,8.36,-4.9,-12.71
27.347,4.55,-2.47,-13.73
27.388,4.94,-7.22,-7.88
27.429,4.08,-5.81,-7.14
27.47,5.06,-3.69,-7.26
27.511,4.79,-3.69,-5.3
27.552,5.37,-3.73,-5.65
27.593,2.59,-1.41,-4.67
27.634,2.31,-2.51,-1.73
27.675,4.67,-4.75,-3.18
27.716,7.1,-7.14,-7.45
27.757,8.08,-9.14,-11.65
27.798,8.43,-12.55,-5.3
27.839,7.49,-7.92,-14.4
27.88,1.41,-6.9,-15.73
27.921,3.18,-3.18,-8.67
27.962,3.33,0.04,-6
28.003,2.55,-0.71,-5.84
28.044,1.77,-2.55,-6.24
28.085,9.77,-6.24,-5.49
28.126,7.45,-6.16,-8.24
28.167,4.82,-4.79,-5.41
28.208,5.18,-4.24,-4.24
28.249,5.06,-3.3,-3.49
28.29,5.06,-3.14,-4.43
28.331,8.71,-6.08,-6.2
28.372,10.47,-7.61,-6.16
28.413,8.24,-6.59,-9.02
28.454,7.81,-4.39,-14.63
28.495,4.71,-4.16,-15.77
28.536,4.63,-7.96,-9.65
28.577,3.77,-6.12,-5.92
28.692,4.55,-2.75,-5.69
28.79,7.14,-3.92,-4.55
29.028,3.73,-6.28,-9.89
29.069,3.26,-2,-6.43
29.11,2.31,0.04,-4.51
29.151,1.77,-1.29,-6.28
29.192,5.33,-5.33,-5.41
29.233,6.86,-5.73,-6.79
29.274,5.33,-4.28,-5.33
29.315,6.24,-3.84,-4
29.356,7.14,-3.41,-3.96
29.397,6.55,-2.98,-4.71
29.438,7.06,-4.35,-5.37
29.479,9.77,-6.94,-5.92
29.52,9.34,-7.14,-11.1
29.561,7.41,-4.28,-14.47
29.602,5.14,-4.63,-12.4
29.643,3.61,-6.43,-8.9
29.684,3.22,-5.81,-6.59
29.725,5.26,-4,-5.69
29.766,4.39,-3.22,-4.86
29.807,6.35,-3.45,-4.67
29.848,3.41,-1.69,-4.55
29.889,3.33,-3.3,-1.49
29.93,5.61,-5.33,-3.33
29.971,6.43,-6.9,-7.77
30.012,11.18,-11.57,-6.63
30.053,8.16,-10.04,-8.24
30.094,4.04,-6.67,-17.5
30.135,3.26,-6.08,-11.77
30.176,2.9,-2.12,-6.16
30.217,2.67,-1.02,-3.3
30.258,1.61,-2.51,-4.86
30.299,6.39,-5.73,-8.28
30.34,6.2,-5.61,-6.24
30.381,4.59,-3.8,-4.2
30.422,4.82,-2.2,-4.12
30.463,7.1,-3.57,-4.67
30.504,8.63,-4.75,-6.2
30.545,10.51,-5.77,-5.37
30.586,9.14,-6.71,-8.36
30.627,8.24,-5.61,-12.47
30.668,4.16,-4.04,-15.89
30.709,2.51,-8.63,-10.12
30.75,3.73,-8.08,-6.47
30.791,4.55,-2.86,-6.83
30.832,4.47,-2.51,-4.47
30.873,7.3,-3.8,-4.28
30.914,3.8,-0.94,-4.55
30.955,3.41,-1.88,-2.55
30.996,5.18,-4.9,-2.24
31.037,6.16,-6.32,-7.1
31.078,9.85,-10.79,-8.71
31.119,8,-12.24,-6.9
31.16,6.16,-7.41,-16.87
31.201,3.1,-6.98,-12.94
31.242,3.33,-2.51,-7.77
31.283,4.67,-0.2,-5.18
31.324,1.22,-3.02,-1.29
31.365,6.08,-4.04,-6.32
31.406,6.43,-5.06,-7.02
31.447,4.55,-5.65,-5.49
31.488,5.73,-5.02,-5.41
31.529,6.55,-4.43,-4.16
31.57,6.24,-2.94,-4.75
31.611,7.96,-3.26,-6.47
31.652,12.51,-6.63,-5.22
31.693,10.12,-6.43,-10.51
31.734,6.51,-4.04,-13.96
31.775,4.67,-5.57,-13.22
31.816,3.33,-8.12,-9.38
31.857,2.9,-6.24,-6.83
31.898,3.8,-1.49,-7.3
31.939,4.71,-4.39,-4.67
31.98,6.35,-3.37,-5.06
32.021,3.57,-1.57,-4.04
32.062,2.82,-1.88,-1.41
32.103,5.84,-5.22,-2.86
32.144,6.39,-5.37,-8.75
32.185,11.57,-10.47,-8.79
32.226,9.53,-11.85,-5.57
32.267,3.41,-6.83,-14.28
32.308,3.22,-7.26,-14.2
32.349,3.37,-4.59,-7.81
32.39,3.33,-0.55,-6
32.431,1.57,-1.06,-5.45
32.472,4.59,-5.02,-6.28
32.513,7.02,-4.86,-5.96
32.554,5.73,-4.43,-5.92
32.595,6.86,-3.8,-4.43
32.636,6.39,-2.51,-3.49
32.677,6,-2.28,-4.86
32.718,7.85,-5.73,-6.75
32.759,10.94,-8.55,-7.06
32.8,9.3,-7.53,-11.49
32.841,6.79,-4.31,-13.42
32.882,3.41,-5.81,-10.94
32.923,3.37,-5.57,-7.96
32.964,4.63,-5.33,-5.69
33.005,5.18,-3.33,-6.86
33.046,6.16,-3.92,-5.14
33.087,4.59,-2.55,-3.77
33.128,2.47,-1.33,-2.47
33.169,5.06,-3.33,-1.61
33.21,7.06,-5.69,-5.73
33.251,8.32,-8.08,-11.14
33.292,7.96,-10.47,-5.57
33.333,5.45,-9.14,-8.98
33.374,4.51,-8.43,-18.4
33.415,4.47,-6,-10.43
33.456,3.02,-1.61,-6.08
33.497,3.53,0,-5.14
33.538,1.88,-1.41,-6.79
33.579,7.81,-5.1,-5.02
33.62,7.22,-4.98,-6.71
33.661,5.02,-4.28,-5.06
33.702,5.61,-4.39,-4.12
33.743,7.22,-3.92,-4.28
33.784,6.63,-3.14,-4.82
33.825,6.67,-4.08,-5.77
33.866,10.4,-6.67,-5.22
33.907,9.65,-6.75,-9.3
33.948,7.1,-4.08,-14.55
33.989,5.18,-6.98,-13.42
34.005,3.18,-6.9,-9.65
34.112,5.41,-2.98,-6.08
34.153,5.26,-3.65,-4.2
34.296,5.65,-2.47,-5.61
34.522,3.92,-7.49,-14.87
34.563,3.3,-3.57,-8.98
34.604,3.57,-1.06,-6.47
34.645,2.75,-0.9,-3.18
34.686,3.92,-4.71,-6.51
34.727,5.84,-5.69,-8.36
34.768,5.1,-4.9,-5.3
34.809,5.33,-4,-5.41
34.85,6.32,-3.65,-4.08
34.891,7.3,-3.1,-4.59
34.932,6.67,-3.69,-5.96
34.973,8.98,-6.35,-5.37
35.014,9.65,-7.06,-6.12
35.055,8.71,-5.3,-10.79
35.096,7.69,-4.59,-13.81
35.137,5.53,-5.18,-12.75
35.178,2.04,-6.32,-8.67
35.219,2,-5.33,-5.73
35.26,4.51,-4.2,-5.26
35.301,4.86,-4.43,-5.41
35.342,6.9,-4.12,-5.84
35.383,3.49,-1.69,-4.39
35.424,3.3,-2.51,-1.57
35.465,5.41,-4.67,-2.63
35.506,6.63,-7.22,-8.63
35.547,9.1,-9.45,-8.55
35.588,7.65,-11.45,-4.94
35.629,5.18,-6.55,-13.96
35.67,4.79,-7.45,-14.63
35.711,4.04,-3.41,-8.98
35.752,4.63,-0.04,-6.32
35.793,1.8,-1.37,-4.47
35.834,5.41,-4.04,-7.06
35.875,7.1,-5.77,-8.59
35.916,5.84,-5.02,-5.37
35.957,5.22,-4.12,-4.04
35.998,4.82,-2.51,-3.33
36.039,6.39,-3.84,-4.67
36.08,8.63,-6.2,-6.28
36.121,10.79,-6.55,-5.26
36.162,8.43,-4.79,-6.51
36.203,7.96,-4.67,-11.45
36.244,5.22,-4.94,-14.79
36.285,4.16,-7.96,-11.14
36.326,4.59,-7.06,-7.61
36.367,5.92,-4.08,-7.14
36.408,5.73,-3.02,-5.14
36.449,4.98,-2.31,-4.82
36.49,3.14,-0.47,-4.16
36.531,2.47,-2.39,-2.04
36.572,4.86,-4.63,-2.24
36.613,7.18,-7.37,-7.3
36.654,6.47,-8.51,-10.51
36.695,9.61,-13.26,-3.18
36.736,6.71,-9.02,-8.79
36.777,6.04,-6.75,-16.48
36.818,3.57,-4.51,-10.04
36.859,3.3,-1.02,-6.71
36.9,2.24,-0.71,-3.41
36.941,2.79,-4.51,-6.59
36.982,6.75,-6,-7.61
37.023,5.45,-5.69,-5.69
37.064,4.94,-3.92,-5.49
37.105,6.35,-3.96,-4
37.146,6.98,-3.41,-4.28
37.187,7.3,-3.96,-5.22
37.228,8.24,-5.77,-6
37.269,8.67,-6.79,-4.71
37.31,8,-6.16,-10.98
37.351,6.63,-4.24,-14.91
37.392,4.86,-5.3,-13.14
37.433,6.2,-7.45,-10.08
37.474,5.14,-5.69,-7.69
37.515,5.14,-2.47,-5.73
37.556,4.24,-2.63,-3.65
37.597,5.06,-2.08,-4.39
37.638,3.18,-2.43,-4.35
37.679,1.77,-2.67,-3.1
37.72,5.02,-5.92,-3.69
37.761,5.73,-7.41,-7.3
37.802,5.96,-9.18,-10.51
37.843,8.94,-14.2,-4.98
37.884,5.18,-6.67,-12.51
37.925,7.26,-7.53,-13.69
37.966,3.02,-2.51,-9.06
38.007,3.57,-0.24,-7.49
38.048,2.94,-0.31,-4.12
38.089,6.2,-5.33,-5.45
38.13,5.73,-5.37,-8.79
38.171,4.28,-5.06,-5.81
38.212,4.35,-4.9,-5.14
38.253,5.69,-4.35,-4.63
38.294,6.86,-3.37,-4.31
38.335,6.75,-3.73,-5.33
38.376,8.75,-4.82,-7.1
38.417,10.9,-6.9,-4.71
38.458,8.36,-5.84,-10
38.499,7.37,-4.12,-13.06
38.54,5.22,-6,-14.4
38.581,4.16,-8.43,-9.92
38.622,4.47,-6.39,-7.06
38.663,5.18,-3.22,-6.47
38.704,5.1,-3.69,-4.63
38.745,5.22,-2.08,-4.98
38.786,3.92,-1.84,-3.57
38.827,2.43,-2.39,-3.1
38.868,4.82,-4.98,-3.45
38.909,5.73,-8,-7.22
38.95,5.3,-9.65,-9.69
38.991,7.06,-13.02,-4.24
39.032,6.28,-10.16,-8.79
39.073,7.06,-7.45,-16.83
39.114,3.88,-4,-9.57
39.155,4.12,-1.26,-7.1
39.196,2.82,-0.31,-5.22
39.237,2.08,-4.2,-3.92
39.278,8.83,-5.69,-5.45
39.319,5.69,-5.3,-5.88
39.36,5.22,-3.92,-4
39.401,5.57,-4.08,-3.88
39.442,6.51,-3.69,-3.61
39.483,6.32,-4.2,-4.79
39.524,6.35,-3.65,-7.41
39.565,10.75,-8.32,-4.79
39.739,8.79,-7.3,-9.73
40.016,4.31,-4.9,-2.75
40.057,6.35,-7.41,-7.34
40.098,5.77,-9.65,-11.3
40.139,9.22,-15.73,-5.57
40.18,5.02,-6.86,-15.97
40.221,3.33,-5.69,-13.69
40.262,3.73,-1.69,-6.75
40.303,4.59,0.16,-6.43
40.344,3.1,-2,-4.35
40.385,6.28,-4.35,-5.96
40.426,4.63,-4.28,-6.83
40.467,4.55,-4.98,-4.47
40.508,5.88,-5.96,-4.63
40.549,6.86,-4.79,-4.9
40.59,6.08,-3.1,-4.43
40.631,6.35,-3.18,-5.61
40.672,11.06,-6.47,-5.02
40.713,8.87,-7.22,-8.43
40.754,8.04,-4.94,-13.06
40.795,6.08,-4.43,-12.94
40.836,3.1,-6.12,-10.87
40.877,4.12,-7.41,-8.51
40.918,4.31,-6.16,-5.84
40.959,4.67,-2.12,-5.57
41,6.98,-4.08,-4.75
41.041,5.53,-2,-5.1
41.082,2.51,-1.45,-4.16
41.123,3.37,-3.02,-1.84
41.164,5.96,-6.24,-3.26
41.205,4.04,-7.18,-10.63
41.246,10.51,-15.18,-5.53
41.287,7.22,-11.02,-10.98
41.328,6.24,-5.73,-18.24
41.369,4.2,-4.04,-7.02
41.41,2.59,-1.33,-6.12
41.451,1.69,-1.84,-3.53
41.492,2.43,-4.55,-7.77
41.533,7.96,-6.39,-6.75
41.574,4.43,-5.37,-6.55
41.615,4.86,-4.94,-4.82
41.656,5.57,-3.69,-4.16
41.697,6.35,-3.22,-4.9
41.738,8.55,-4.59,-5.96
41.779,10.79,-5.3,-5.61
41.82,9.57,-6.35,-7.22
41.861,7.92,-5.14,-13.65
41.902,5.37,-5.1,-14.98
41.943,3.69,-8.59,-9.61
41.984,2.63,-6.08,-7.45
42.025,3.06,-2.75,-5.69
42.066,5.77,-3.73,-4.63
42.107,7.34,-3.33,-5.18
42.148,3.26,-0.39,-4.9
42.189,2.79,-2.08,-1.73
42.23,5.18,-4.79,-2.31
42.271,6.32,-6.94,-7.96
42.312,6.59,-9.57,-11.22
42.353,8.71,-13.93,-3.1
42.394,5.14,-8.04,-11.18
42.435,5.49,-6.51,-16
42.476,4,-2.79,-8.79
42.517,4.08,0.31,-7.3
42.558,2.24,-0.71,-4.59
42.599,5.41,-5.53,-4.79
42.64,6.35,-5.26,-9.1
42.681,5.14,-5.57,-6.12
42.722,5.1,-4.51,-4.67
42.763,6.24,-3.41,-4.43
42.804,7.73,-3.73,-4.24
42.845,7.41,-3.73,-5.49
42.886,9.61,-5.06,-5.1
42.927,10.55,-6.43,-7.37
42.968,9.69,-5.33,-11.92
43.009,4.75,-5.53,-14.28
43.05,2.51,-7.49,-10.28
43.091,3.06,-6.55,-6.63
43.132,5.84,-4.71,-7.96
43.173,6.28,-5.45,-4.82
43.214,6.83,-4.08,-5.3
43.255,4.28,-1.41,-3.37
43.296,3.53,-0.82,-1.41
43.337,4.35,-2.24,-1.37
43.378,6.47,-6.32,-5.61
43.419,6.2,-7.92,-11.38
43.46,9.73,-12.98,-5.69
43.501,5.69,-11.61,-6.47
43.542,7.73,-7.88,-17.46
43.583,3.77,-5.41,-10.04
43.624,2.86,-0.16,-7.65
43.665,3.06,-0.39,-3.61
43.706,1.33,-0.63,-6.71
43.747,6.63,-4.24,-7.14
43.788,5.77,-5.61,-7.1
43.829,4.75,-5.1,-4.9
43.87,6.71,-4.47,-5.73
43.911,6.71,-3.45,-4.28
43.952,6.71,-3.53,-4.24
43.993,6.71,-3.88,-6.51
44.034,9.77,-6.67,-4.82
44.075,8.51,-4.98,-9.22
44.116,9.69,-4.63,-11.22
44.157,8.16,-6.9,-12.91
44.198,2.39,-5.84,-12.28
44.239,1.88,-4.94,-7.69
44.28,4.08,-6.35,-5.96
44.321,4.71,-4.47,-6.24
44.362,6.63,-3.61,-6.59
44.403,4.9,-1.69,-4.51
44.444,3.69,-1.37,-2.31
44.485,4.24,-2.82,-2.24
44.526,5.41,-4.94,-4.59
44.567,6.04,-8.36,-9.69
44.608,7.26,-11.26,-6.86
44.649,6.55,-12.12,-5.84
44.69,5.96,-9.61,-12.08
44.731,3.41,-7.34,-15.69
44.772,3.96,-3.45,-8.55
44.813,3.61,-0.51,-7.34
44.854,3.65,-0.31,-6.47
44.895,4.63,-2.35,-3.37
44.936,7.06,-4.28,-6.9
44.977,4.82,-3.92,-6.08
45.018,4.2,-5.61,-5.53
45.059,4.98,-6.55,-4.79
45.202,5.96,-4.9,-5.37
45.337,10.79,-4.79,-6.47
45.469,7.34,-5.69,-6.12
45.51,5.45,-2.82,-7.1
45.551,2.98,-2.04,-4.47
45.592,3.18,-3.77,-1.69
45.633,4.31,-4.59,-1.65
45.674,7.53,-6.63,-4.71
45.715,11.22,-8.79,-8.63
45.756,8.04,-9.57,-6.98
45.797,8.08,-9.85,-9.22
45.838,1.8,-6.47,-13.61
45.879,2.51,-3.84,-7.69
45.92,3.57,-1.96,-6.47
45.961,2.47,-1.88,-5.77
46.002,4.9,-4.9,-6.59
46.043,5.88,-5.65,-7.61
46.084,4.94,-4.75,-6.12
46.125,4.98,-2.98,-5.26
46.166,6.86,-3.45,-4.67
46.207,8.28,-3.88,-4.94
46.248,7.92,-4.12,-6.71
46.289,9.61,-5.69,-5.45
46.33,9.18,-6.35,-7.88
46.371,9.1,-6.39,-12.79
46.412,6.28,-5.33,-12.2
46.453,2.24,-4.71,-8.16
46.494,2.31,-4.39,-7.18
46.535,3.92,-5.41,-7.18
46.576,5.26,-4.86,-7.02
46.617,6.71,-3.73,-5.49
46.658,3.22,-1.8,-4.2
46.699,3.65,-2.67,-2.28
46.74,5.26,-4.67,-2.98
46.781,7.77,-6.63,-5.96
46.822,8.2,-8.79,-9.49
46.863,7.85,-11.41,-5.02
46.904,5.73,-8.04,-12.94
46.945,0.82,-6.2,-13.26
46.986,3.53,-3.26,-7.22
47.027,4.12,-0.94,-6
47.068,2.75,-1.61,-5.96
47.109,5.33,-3.65,-7.1
47.15,6.08,-4.98,-8.04
47.191,5.3,-4.71,-6.12
47.232,5.06,-3.92,-5.45
47.273,6.43,-3.3,-5.06
47.314,7.34,-3.84,-5.02
47.355,7.69,-4.79,-6.35
47.396,8.63,-5.92,-6.98
47.437,9.81,-7.96,-4.98
47.478,7.22,-5.49,-11.02
47.519,6.16,-2.39,-13.06
47.56,4.51,-4.2,-10.67
47.601,5.84,-6.16,-8.32
47.642,4.16,-5.06,-6.9
47.683,4.98,-3.14,-6.04
47.724,6.63,-5.06,-4.94
47.765,3.88,-2.86,-5.92
47.806,1.92,-2.2,-3.73
47.847,2.28,-3.77,-1.41
47.888,5.14,-6.39,-3.92
47.929,8.43,-7.1,-10.12
47.97,9.65,-9.61,-5.1
48.011,7.92,-8.04,-5.22
48.052,4.9,-7.02,-13.26
48.093,0.39,-6.63,-14.4
48.134,3.02,-4.71,-7.61
48.175,4.24,-0.98,-6.28
48.216,1.61,-3.41,-4.98
48.257,4,-3.14,-8.87
48.298,6.67,-5.53,-6.94
48.339,6.98,-4.51,-5.53
48.38,6.04,-2.63,-5.81
48.421,5.69,-1.96,-3.73
48.462,7.14,-4.39,-5.77
48.503,9.1,-7.06,-6.75
48.544,8.83,-7.18,-6.04
48.585,7.69,-5.41,-10.12
48.626,7.14,-4.39,-12.79
48.667,5.3,-5.18,-12.94
48.708,4,-5.53,-9.14
48.749,4.28,-5.26,-6.59
48.79,4.9,-3.41,-7.14
48.831,5.92,-4.31,-5.14
48.872,5.02,-2.75,-5.77
48.913,3.02,-2.08,-4.43
48.954,2.51,-2.94,-3.02
48.995,5.1,-6.04,-3.61
49.036,6.94,-6.67,-7.41
49.077,9.53,-8.9,-7.41
49.118,9.02,-9.53,-4.2
49.159,6.55,-7.69,-9.73
49.2,2.79,-6.71,-14.24
49.241,2.79,-5.3,-7.85
49.282,3.3,-1.14,-6.55
49.323,3.84,-1.65,-7.14
49.364,5.06,-5.26,-6
49.405,6.16,-5.02,-8.67
49.446,4.67,-4.12,-5.65
49.487,4.47,-3.45,-5.41
49.528,6.98,-3.88,-4.63
49.569,7.92,-3.77,-4.9
49.61,7.06,-3.77,-5.37
49.651,7.26,-4.67,-6.28
49.692,9.14,-6.94,-5.53
49.733,8.67,-7.34,-7.45
49.774,7.61,-4.47,-12.67
49.815,5.84,-4.55,-13.1
49.856,4.86,-6.63,-9.89
49.897,3.84,-4.94,-7.73
49.938,3.96,-3.69,-5.84
49.979,4.39,-3.8,-6.04
50.02,5.92,-3.84,-4.98
50.061,3.8,-2.67,-3.73
50.102,2.55,-2.35,-2.55
50.143,4.39,-3.8,-3.22
50.184,7.1,-6.55,-5.57
50.225,7.34,-7.61,-9.89
50.266,7.57,-12.16,-6.04
50.307,5.3,-9.57,-9.77
50.348,2.2,-6.35,-14.36
50.389,3.84,-5.73,-9.69
50.43,3.06,-1.41,-7.45
50.471,4.79,-0.67,-8.12
50.512,5.22,-4.86,-1.1
50.704,6.79,-4.16,-8.24
50.882,4.04,-4.55,-4.2
50.963,7.26,-5.53,-14.79
51.004,7.02,-8.28,-12.83
51.045,1.96,-6.04,-7.61
51.086,4.28,-6.08,-5.14
51.127,4.59,-4.24,-8.28
51.168,5.61,-6.47,-5.77
51.209,4.82,-3.06,-6.47
51.25,3.06,-1.53,-5.41
51.291,2.51,-2.12,-4.35
51.332,2.86,-4.55,-4.63
51.373,4.86,-6.43,-4.82
51.414,5.65,-6.35,-7.65
51.455,8,-8.98,-8.08
51.496,8.12,-10.98,-5.22
51.537,5.53,-8.28,-7.65
51.578,4.59,-7.1,-16.67
51.619,2.08,-4.86,-10.59
51.66,3.84,-1.92,-6.83
51.701,4,-1.57,-4.08
51.742,1.88,-4.35,-5.1
51.783,3.92,-4.04,-9.96
51.824,6.47,-6.51,-5.02
51.865,5.18,-4.59,-6.43
51.906,5.53,-2.86,-5.14
51.947,6.04,-2.43,-4.2
51.988,7.45,-3.53,-5.73
52.029,10.08,-5.49,-6.59
52.07,10.71,-6.39,-5.84
52.111,8.59,-5.41,-11.06
52.152,5.88,-4.71,-13.57
52.193,4,-6.43,-12.28
52.234,2.51,-6.79,-9.26
52.275,3.02,-6.2,-6.86
52.316,4.55,-4.82,-5.3
52.357,5.37,-3.88,-4.86
52.398,5.69,-2.43,-5.53
52.439,3.37,-2.08,-4.12
52.48,3.02,-3.1,-2.39
52.521,5.3,-4.94,-3.3
52.562,7.41,-6.63,-6.67
52.603,8.04,-9.02,-8.67
52.644,8.36,-11.57,-5.37
52.685,5.61,-7.53,-13.45
52.726,0.47,-6.28,-13.61
52.767,3.26,-5.18,-7.49
52.808,3.49,-0.98,-6.16
52.849,3.06,-0.75,-6.47
52.89,4.86,-4.94,-5.57
52.931,7.34,-5.22,-7.34
52.972,5.14,-4.43,-6.51
53.013,4.98,-4.16,-4.98
53.054,5.96,-3.73,-4.16
53.095,7.61,-3.73,-5.1
53.136,7.14,-4.31,-6.71
53.177,7.61,-4.98,-5.57
53.218,9.34,-6.28,-5.65
53.259,10.43,-7.34,-10.04
53.3,8.67,-5.45,-12.91
53.341,3.88,-3.14,-12.79
53.382,2.82,-5.81,-8.55
53.423,4.71,-7.18,-6.12
53.464,4.59,-4.28,-7.61
53.505,5.02,-3.49,-4.59
53.546,4.9,-2.47,-4.67
53.587,3.49,-1.49,-3.77
53.628,4,-2.71,-1.88
53.669,5.33,-5.41,-4.12
53.71,8.55,-7.96,-8.28
53.751,7.73,-9.81,-9.3
53.792,6.75,-11.49,-4.31
53.833,3.49,-7.14,-11.22
53.874,4.08,-6.12,-15.73
53.915,4.47,-3.33,-8.94
53.956,4.51,-0.75,-6.32
53.997,2.63,-0.51,-4.12
54.038,3.88,-3.65,-5.81
54.079,7.22,-5.06,-7.69
54.12,5.96,-5.61,-6.55
54.161,5.33,-4.51,-4.67
54.202,5.65,-3.02,-4.51
54.243,6.47,-3.69,-3.88
54.284,6.79,-4.51,-6.04
54.325,8.75,-6.47,-6.51
54.366,8.83,-7.45,-6.75
54.407,8.12,-6.51,-11.26
54.448,5.73,-4.04,-14.24
54.489,4.28,-5.65,-8.75
54.53,4.24,-5.1,-7.37
54.571,5.57,-4.67,-6.2
54.612,6.04,-3.37,-6.83
54.653,6,-3.45,-6.32
54.694,2.39,-2.98,-5.02
54.735,1.29,-3.57,-2.16
54.776,2.75,-4.9,-2.63
54.817,5.14,-6.55,-5.14
54.858,8.83,-7.02,-8.16
54.899,11.1,-7.96,-5.73
54.94,9.22,-8.2,-9.96
54.981,1.1,-7.1,-15.3
55.022,1.49,-5.81,-8.59
55.063,3.18,-4.59,-5.06
55.104,3.77,-1.77,-5.92
55.145,2.04,-3.41,-7.96
55.186,5.92,-5.65,-6.9
55.227,5.73,-4.31,-6.71
55.268,4.63,-3.33,-6.43
55.309,6.16,-3.73,-5.53
55.35,7.77,-4.28,-4.24
55.391,5.88,-2.98,-4.86
55.432,5.45,-4.31,-6.2
55.473,9.3,-9.34,-6.59
55.514,9.77,-7.3,-10.2
55.555,8.83,-4.63,-10.2
55.596,5.22,-3.06,-14.47
55.637,2.63,-4.79,-9.96
55.678,4.28,-5.22,-7.22
55.719,4.31,-4.55,-6.83
55.76,4.24,-3.61,-6.35
55.801,5.61,-4.16,-4.9
55.842,3.61,-2.71,-4.63
55.883,3.1,-2.94,-3.3
55.924,4.35,-4.59,-2.51
55.965,6.24,-6.63,-5.26
56.006,6.67,-7.61,-8.59
56.047,10.08,-10.28,-4
56.119,6.67,-7.96,-6.51
56.396,0.63,-6.08,-12.32
56.457,5.84,-2.67,-5.45
56.498,6.51,-3.18,-3.84
56.539,6.98,-4.04,-5.33
56.58,5.84,-4.9,-6.08
56.621,8.55,-7.37,-6.32
56.662,9.45,-8.16,-9.18
56.703,8.98,-5.26,-11.41
56.744,5.3,-3.61,-13.18
56.785,3.26,-5.1,-8.79
56.826,4.55,-6.2,-7.22
56.867,5.53,-4.94,-7.06
56.908,4.9,-3.18,-6.51
56.949,6.16,-3.73,-5.41
56.99,4.16,-2.43,-4.98
57.031,2.31,-2.79,-2.9
57.072,3.49,-4.82,-2.59
57.113,6.24,-7.41,-6.2
57.154,7.1,-7.18,-8.63
57.195,8.75,-9.14,-4.16
57.236,7.53,-8.55,-6.86
57.277,3.88,-7.26,-16.44
57.318,3.53,-7.02,-9.26
57.359,2.59,-3.02,-7.14
57.4,3.92,-0.35,-6.71
57.441,2.31,-2.82,-6.79
57.482,6.35,-5.37,-5.49
57.523,6.39,-5.57,-7.73
57.564,4.16,-3.88,-5.41
57.605,4.98,-3.06,-4.86
57.646,6.98,-3.84,-4.82
57.687,8.67,-4.47,-5.18
57.728,7.49,-3.84,-6.24
57.769,7.3,-3.84,-5.88
57.81,10.12,-8.59,-7.22
57.851,7.22,-5.81,-13.93
57.892,5.96,-4.08,-12.75
57.933,2.51,-5.26,-10.04
57.974,2.24,-5.41,-9.65
58.015,4.82,-6.04,-6.51
58.056,5.81,-3.73,-6.28
58.097,5.53,-3.57,-6.08
58.138,5.22,-2.35,-5.06
58.179,2.79,-2.16,-3.37
58.22,2.2,-2.75,-2.2
58.261,5.22,-6,-3.33
58.302,7.18,-7.92,-7.65
58.343,8.24,-9.65,-7.57
58.384,9.61,-10.87,-7.18
58.425,5.96,-6.94,-14.32
58.466,0.9,-5.26,-11.45
58.507,2.75,-3.96,-6.24
58.548,3.49,-0.59,-6.28
58.589,2.71,-2.63,-6.86
58.63,6.9,-4.71,-6.86
58.671,6.24,-5.14,-8.71
58.712,4.59,-4.47,-5.53
58.753,4.31,-3.84,-5.65
58.794,5.81,-3.77,-4.82
58.835,6.75,-3.57,-4.67
58.876,6.2,-4.47,-5.81
58.917,7.73,-5.65,-7.45
58.958,9.77,-8.43,-6.63
58.999,7.85,-6.43,-12.16
59.04,7.34,-3.84,-13.1
59.081,4.63,-4.31,-12.67
59.122,2.82,-5.57,-9.45
59.163,3.92,-5.69,-6.24
59.204,4.9,-4.28,-7.02
59.245,5.22,-4.12,-5.88
59.286,5.77,-2.71,-5.33
59.327,4.28,-1.92,-3.61
59.368,3.84,-1.92,-2.39
59.409,5.18,-4.12,-3.14
59.45,6.35,-6.71,-5.02
59.491,5.1,-7.81,-9.53
59.532,6.24,-10.51,-6.35
59.573,5.65,-12.16,-6.12
59.614,6.24,-7.37,-17.77
59.655,0.86,-5.96,-13.18
59.696,3.88,-2.94,-8.47
59.737,4.31,0.16,-6.83
59.778,2.39,-0.86,-3.37
59.819,2.28,-4.35,-6.51
59.86,6.63,-5.69,-8.08
59.901,5.65,-6.32,-7.26
59.942,4.82,-4.04,-6.55
59.983,5.41,-3.02,-4.94
60.024,6.79,-2.71,-4.51
60.065,7.69,-2.9,-5.14
60.106,7.41,-3.88,-6.35
60.147,7.77,-6.32,-6.12
60.188,7.57,-7.06,-8.24
60.229,8.36,-5.96,-12.63
60.27,6.59,-5.06,-14.08
60.311,3.84,-5.22,-11.57
60.352,3.88,-5.33,-7.26
60.393,4.2,-5.02,-6.94
60.434,4.82,-2.9,-6.94
60.475,5.26,-3.84,-5.88
60.516,4.71,-2.94,-6.24
60.557,3.14,-2.71,-4.98
60.598,4.04,-4.59,-4.28
60.639,6.55,-6.2,-5.65
60.68,5.33,-3.8,-5.81
60.721,5.57,-3.22,-5.26
60.762,5.96,-5.77,-11.85
60.803,7.73,-5.45,-17.77
60.844,3.53,-5.69,-8.04
60.885,2.2,-3.22,-3.37
60.926,3.06,-2.79,-10.08
60.967,5.1,-2.82,-12.12
61.008,10.71,-9.65,0.39
61.049,4.94,-3.77,-9.38
61.09,3.84,-2.08,-9.14
61.131,4.79,-4.35,-7.37
61.172,6.51,-6.59,-7.65
61.213,4.82,-5.02,-7.92
61.254,5.53,-5.96,-7.49
61.295,5.37,-5.26,-7.26
61.336,5.45,-4.59,-6.43
61.377,6.24,-4.67,-6.12
61.418,6.35,-5.22,-7.06
61.459,5.14,-5.69,-6.63
61.5,4.9,-5.96,-6.71
61.541,4.98,-6,-6.43
61.582,5.41,-5.73,-6.24
61.666,5.73,-5.53,-6.24
61.951,5.81,-6.12,-6.16
61.992,5.88,-5.53,-5.84
62.033,6.32,-5.65,-5.53
62.074,5.84,-6.24,-5.92
62.115,5.53,-5.88,-5.84
