NAME:,walk_4_1.csv,,
EXPERIMENT TIME:,05/06/2023 20:33,,
ACTIVITY TYPE:,Walking,,
COUNT OF ACTUAL STEPS:,108,,
,,,
Time [sec],ACC X,ACC Y,ACC Z
0,6.35,-5.3,-5.96
0.041,6.24,-5.33,-6.04
0.082,6.24,-5.41,-6
0.123,6.35,-5.18,-6
0.164,6.39,-5.26,-6
0.205,6.28,-5.37,-6.12
0.246,6.08,-5.33,-6.08
0.287,6.47,-5.45,-6.28
0.328,6.28,-5.45,-6.47
0.369,5.96,-5.26,-6.2
0.41,6.24,-5.14,-6.28
0.451,7.06,-5.18,-6.08
0.492,6.51,-4.39,-6.47
0.533,6.28,-4.12,-5.88
0.574,6.04,-4.9,-6.39
0.61,5.96,-5.77,-6.39
0.738,6.51,-5.14,-6.98
0.897,8.47,-4.9,-6.55
1.107,8.75,-4.12,-4.75
1.148,7.06,-4.35,-4.67
1.189,5.41,-4.35,-4.12
1.23,5.84,-5.18,-4.47
1.271,8.08,-6.35,-4.9
1.312,8.79,-5.1,-4.86
1.353,9.65,-4.08,-7.85
1.394,11.96,-6.12,-9.22
1.435,5.96,-5.61,-10.75
1.476,1.53,-4.39,-8.24
1.517,1.37,-6,-5.14
1.558,5.33,-5.69,-7.45
1.599,9.02,-7.18,-6.2
1.64,6.83,-3.49,-7.73
1.681,5.92,-1.41,-5.1
1.722,3.37,-2.59,-3.49
1.763,2.35,-3.41,-3.65
1.804,3.88,-4.86,-3.73
1.845,5.1,-6.59,-6
1.886,6.9,-7.65,-6.39
1.927,8.32,-8.63,-5.77
1.968,9.14,-7.73,-3.1
2.009,8.59,-7.34,-11.77
2.05,3.49,-8.39,-14.47
2.091,3.33,-5.77,-8
2.132,4.71,-2.59,-6.55
2.173,1.57,-3.1,-6.39
2.214,4.35,-5.81,-7.69
2.255,4.82,-7.3,-5.3
2.296,4.79,-3.26,-6.94
2.337,6.08,-2.28,-5.1
2.378,8.55,-2.59,-4.24
2.419,7.96,-2.59,-4.28
2.46,5.57,-2.94,-4.08
2.501,7.41,-5.14,-5.14
2.542,9.96,-8.47,-4.86
2.583,7.92,-7.53,-11.18
2.624,8.75,-4.9,-12.75
2.665,5.06,-6.35,-14.71
2.706,5.14,-7.34,-9.1
2.747,4.9,-4.28,-6.04
2.788,5.02,-3.3,-5.1
2.829,3.96,-3.14,-3.84
2.87,3.77,-1.77,-4.08
2.911,2.59,-1.8,-2.86
2.952,3.49,-3.65,-2.08
2.993,6.94,-7.22,-4.9
3.034,5.61,-7.14,-8.47
3.075,10.04,-10.2,-6.39
3.116,10.71,-11.3,-8.12
3.157,3.65,-7.81,-18.51
3.198,3.37,-6.67,-10.9
3.239,3.33,-1.37,-6.67
3.28,2.08,-0.31,-4.9
3.321,1.29,-3.14,-7.61
3.362,7.61,-6.35,-5.92
3.403,7.65,-5.37,-6.98
3.444,5.73,-2.71,-4.86
3.485,5.69,-1.53,-4.08
3.526,6.63,-2.9,-3.49
3.567,6.94,-4.67,-5.45
3.608,9.1,-7.41,-7.69
3.649,9.65,-7.96,-5.33
3.69,8.24,-5.69,-12.28
3.731,5.73,-4.16,-13.96
3.772,5.18,-9.18,-11.1
3.813,5.3,-7.18,-8.08
3.854,5.41,-4.35,-6.2
3.895,4.04,-0.98,-4.28
3.936,4.08,-1.73,-2.35
3.977,4.47,-1.14,-2.55
4.018,3.3,-2.24,-2.75
4.059,5.92,-4.04,-3.41
4.1,7.85,-6.59,-6.67
4.141,8.2,-8.94,-12.91
4.182,9.77,-14.24,-7.18
4.223,3.1,-8.79,-16.67
4.264,5.3,-6.9,-13.69
4.305,3.53,-1.69,-8.08
4.346,2.47,0.27,-5.61
4.387,1.45,-2.51,-4.35
4.428,6.43,-4.79,-5.53
4.469,5.45,-5.02,-6.35
4.51,5.06,-5.06,-4.94
4.551,6.98,-4.86,-4.31
4.592,6.67,-3.57,-3.84
4.633,6.12,-2.39,-4.08
4.674,9.06,-3.88,-5.45
4.715,11.34,-5.73,-5.96
4.756,9.14,-5.45,-11.73
4.797,5.61,-5.06,-15.18
4.838,6.12,-10.08,-12.63
4.879,3.18,-6.79,-9.61
4.92,4.28,-3.8,-5.37
4.961,3.06,-1.73,-3.57
5.002,3.53,-2.43,-2.79
5.043,5.02,-1.02,-3.1
5.084,4.28,-3.18,-3.96
5.125,6.79,-4.71,-3.65
5.166,6.24,-6.51,-6.35
5.207,6.67,-9.1,-11.1
5.248,8.47,-14.71,-4.04
5.289,5.53,-9.1,-13.45
5.33,6.28,-7.22,-14.67
5.371,2.63,-2.67,-8.67
5.412,3.57,-0.63,-6.75
5.453,1.18,-0.98,-5.06
5.494,2.12,-5.06,-6.04
5.535,7.06,-5.69,-5.61
5.576,5.37,-4.94,-5.84
5.617,5.92,-3.1,-4.31
5.658,6.83,-3.02,-3.88
5.699,7.96,-3.69,-4.79
5.74,8.47,-5.3,-6.39
5.781,9.81,-5.3,-4.94
5.822,9.77,-5.45,-7.34
5.863,6.24,-4.35,-12.47
5.904,6.24,-8.55,-15.81
5.945,4.51,-9.22,-11.69
5.986,3.73,-7.06,-6.43
6.027,3.65,-3.41,-5.84
6.068,2.98,-1.8,-4.12
6.109,6.24,-2.79,-4
6.15,4.12,-0.59,-3.45
6.341,4.82,-2.28,-1.57
6.56,0.31,-3.96,-5.69
6.601,6.35,-4.9,-6.43
6.642,6.28,-5.45,-5.96
6.683,6.9,-3.88,-4.55
6.724,8.08,-2.82,-3.41
6.765,6.94,-1.65,-3.69
6.806,7.22,-2.39,-4.35
6.847,10.9,-4.9,-5.26
6.888,10.55,-6.28,-7.57
6.929,6.83,-5.26,-13.1
6.97,4.9,-7.1,-16.04
7.011,4.04,-9.85,-12.43
7.052,3.61,-6.75,-6.86
7.093,4.43,-3.02,-5.69
7.134,4.39,-2.79,-4.39
7.175,6.86,-3.18,-3.45
7.216,2.31,-1.14,-3.37
7.257,3.26,-2.2,-1.53
7.298,6.35,-4.24,-2.12
7.339,6.2,-5.14,-8.16
7.38,13.06,-10.67,-7.77
7.421,11.61,-13.49,-9.1
7.462,0.9,-6.71,-19.26
7.503,2.51,-4.31,-8.67
7.544,2.12,-1.65,-5.69
7.585,2.31,-1.29,-6.94
7.626,1.22,-7.34,-6.24
7.667,6.98,-5.41,-6.04
7.708,5.18,-2.43,-4.9
7.749,7.1,-2.31,-2.94
7.79,8.08,-1.96,-3.45
7.831,8.39,-2.35,-4.63
7.872,10.24,-4.79,-5.49
7.913,9.85,-5.3,-6.71
7.954,7.53,-5.33,-11.96
7.995,4.94,-5.88,-16.08
8.036,4.71,-10.28,-14.12
8.077,4.2,-9.41,-7.61
8.118,4.43,-4.67,-6.32
8.159,5.37,-2.43,-4.71
8.2,5.53,-2.55,-4.86
8.241,2.94,0.31,-2.94
8.282,3.41,-1.26,0.2
8.323,6.35,-2.43,-1.33
8.364,7.81,-4.86,-6.35
8.405,9.45,-11.14,-12.63
8.446,7.02,-14.51,-10.9
8.487,2.67,-11.02,-18.2
8.528,3.84,-6.43,-10.16
8.569,2.71,-0.47,-8.16
8.61,1.77,1.26,-5.49
8.651,0.75,-0.86,-7.06
8.692,3.41,-4.39,-6.79
8.733,12.91,-7.3,-2.2
8.774,6.55,-3.53,-5.57
8.815,6.12,-2.2,-3.06
8.856,5.49,-2.08,-3.33
8.897,7.49,-4.94,-5.73
8.938,11.14,-6.35,-5.33
8.979,9.26,-5.81,-6.71
9.02,6.63,-5.18,-13.81
9.061,5.41,-7.61,-15.49
9.102,5.69,-10.51,-10.28
9.143,2.39,-6.32,-7.65
9.184,4.98,-2.63,-6.55
9.225,4.63,-3.3,-3.37
9.266,6.79,-3.26,-3.77
9.307,3.49,-0.67,-2.79
9.348,4.39,-2.31,-0.31
9.389,6.98,-4.2,-2.98
9.43,7.02,-6.75,-9.14
9.471,9.77,-10.28,-7.81
9.512,8.32,-12,-5.84
9.553,4.71,-7.41,-20.01
9.594,3.41,-6.04,-9.02
9.635,2.98,-1.29,-6.59
9.676,2.31,-1.18,-4.24
9.717,1.06,-3.53,-6.35
9.758,6.86,-4.71,-6.24
9.799,6.75,-4.39,-5.41
9.84,6.04,-3.33,-4.04
9.881,7.41,-3.14,-4
9.922,7.1,-2.9,-4.39
9.963,6.83,-4.04,-4.82
10.004,9.34,-5.92,-4.67
10.045,9.41,-6.28,-6.12
10.086,8.32,-4.71,-11.61
10.127,4.98,-4.24,-15.61
10.168,7.14,-10.51,-11.57
10.209,4.82,-7.45,-9.69
10.25,5.53,-3.77,-6.55
10.291,4.08,-1.57,-4.24
10.332,4.35,-3.02,-3.18
10.373,4.2,-0.9,-4.24
10.414,3.49,-2.16,-3.1
10.455,5.02,-3.37,-2.71
10.496,7.41,-6.83,-5.81
10.537,6.28,-7.73,-10
10.578,8.2,-14.44,-3.61
10.619,3.45,-8.55,-10.94
10.66,6.94,-6.47,-15.38
10.701,5.18,-5.22,-10.4
10.742,4.31,-0.86,-8.16
10.783,2.9,-0.16,-5.84
10.824,3.41,-4.59,-3.14
10.865,4.35,-4.47,-6.67
10.906,3.41,-4.31,-5.88
10.947,5.84,-5.57,-4.82
10.988,7.45,-5.22,-4.9
11.029,6.83,-3.77,-4.24
11.07,6.04,-2.75,-4.59
11.111,10.79,-4.82,-5.1
11.152,11.81,-6.47,-6.47
11.193,8.36,-4.98,-11.53
11.234,4.71,-4.39,-13.96
11.275,4.16,-9.77,-14.44
11.316,3.96,-9.65,-10.32
11.357,3.77,-4.04,-5.88
11.398,3.37,-2.75,-4.31
11.439,4.86,-2.28,-4.94
11.48,4,-1.92,-3.61
11.521,4.08,-1.73,-1.33
11.59,6,-2.51,-1.33
11.662,11.14,-10.51,-10
11.767,4.16,-9.22,-14.63
11.901,4.63,-3.88,-8.28
12.054,7.77,-4.67,-4.67
12.095,7.3,-4.71,-4.71
12.136,5.65,-3.57,-4.31
12.177,8.94,-5.88,-4.2
12.218,10.28,-6.71,-6.67
12.259,8.87,-5.26,-10.87
12.3,5.41,-2.39,-12.47
12.341,5.45,-7.92,-12.71
12.382,7.41,-8.2,-10.98
12.423,5.81,-3.73,-7.37
12.464,3.45,-2.86,-4.12
12.505,2.75,-2.39,-4.12
12.546,3.06,-1.8,-3.88
12.587,3.02,-2.75,-3.45
12.628,4.51,-4.08,-3.02
12.669,7.77,-7.3,-5.65
12.71,5.57,-6.79,-9.1
12.751,10.63,-12.55,-1.84
12.792,5.88,-7.3,-10.2
12.833,8,-6.32,-18.55
12.874,2.55,-5.49,-12.32
12.915,2.98,-1.8,-7.37
12.956,1.53,-1.41,-3.3
12.997,3.88,-5.22,-5.81
13.038,5.3,-5.22,-8.75
13.079,5.41,-4.59,-4.86
13.12,5.53,-3.41,-4.28
13.161,6.55,-2.98,-3.96
13.202,7.53,-3.53,-4.31
13.243,8.08,-4.67,-6.08
13.284,10.63,-6.04,-5.22
13.325,9.14,-5.81,-7.45
13.366,7.14,-4.67,-11.34
13.407,5.02,-4.24,-14.04
13.448,3.65,-9.89,-12.59
13.489,4.82,-8.24,-7.45
13.53,6.51,-3.96,-6.32
13.571,4.35,-3.1,-3.61
13.612,4.51,-2,-5.26
13.653,3.06,0.43,-3.84
13.694,2.94,-1.45,-1.22
13.735,5.26,-3.77,-2.75
13.776,8.87,-7.34,-6.47
13.817,6.98,-8.36,-12.12
13.858,9.53,-14.24,-4.86
13.899,5.33,-8.71,-14.59
13.94,4.59,-6.86,-14.63
13.981,3.57,-2.75,-6.75
14.022,3.77,-0.47,-6.63
14.063,1.84,-2,-6.94
14.104,6.35,-5.57,-4.59
14.145,4.86,-4.31,-5.65
14.186,4.59,-4.39,-5.06
14.227,6.98,-5.06,-3.57
14.268,7.3,-3.3,-3.88
14.309,6.98,-2.75,-4.98
14.35,8,-4,-6.24
14.391,10.12,-6.39,-4.55
14.432,8.24,-6.67,-9.14
14.473,7.69,-6,-14.44
14.514,6,-7.81,-12.75
14.555,2.98,-6.35,-9.06
14.596,3.37,-4.59,-6.32
14.637,5.88,-3.41,-6.32
14.678,5.37,-3.92,-5.69
14.719,4.16,-2.31,-5.3
14.76,2.9,-1.61,-3.26
14.801,3.18,-3.18,-1.49
14.842,6.24,-5.73,-2.39
14.883,7.96,-6.2,-7.1
14.924,10.36,-8.63,-9.89
14.965,11.96,-13.45,-5.41
15.006,3.06,-5.69,-18.55
15.047,3.88,-5.73,-9.38
15.088,2.47,-2.71,-5.02
15.129,1.96,-0.31,-4.08
15.17,-0.24,-5.37,-5.41
15.211,8.39,-6.63,-6.47
15.252,6.79,-5.41,-5.1
15.293,5.37,-2.63,-4.47
15.334,5.73,-2.63,-3.41
15.375,6.16,-3.06,-3.41
15.416,7.45,-4.71,-5.57
15.457,10.63,-6.12,-5.26
15.498,10,-6.59,-7.85
15.539,7.18,-4.75,-13.26
15.58,4.98,-6.94,-14.95
15.621,5.92,-10.08,-10.43
15.662,2.67,-6.59,-8.28
15.703,3.8,-3.53,-5.45
15.744,4.98,-3.45,-2.94
15.785,5.02,-3.26,-3.77
15.826,3.41,-0.86,-3.41
15.867,4.04,-1.96,-1.96
15.908,5.73,-3.88,-2.55
15.949,8.04,-6.08,-6.86
15.99,9.1,-9.85,-10.94
16.031,9.41,-14.04,-7.26
16.072,4.9,-8.55,-18.4
16.113,2.67,-5.33,-9.73
16.154,2.75,-1.49,-7.34
16.195,3.3,-0.78,-7.65
16.236,2.63,-2.98,-7.73
16.277,8.12,-5.02,-6.28
16.318,3.8,-3.45,-5.3
16.359,5.14,-4.35,-3.92
16.4,7.45,-4.39,-3.8
16.441,7.41,-3.45,-4.24
16.482,7.22,-3.22,-4.31
16.523,7.96,-4.59,-4.71
16.564,8.59,-5.53,-4.47
16.605,8,-5.3,-9.1
16.646,5.57,-2.86,-15.73
16.687,8.55,-10.51,-14.95
16.728,7.96,-9.65,-11.73
16.769,4.98,-3.41,-7.69
16.81,3.69,-1.53,-2.47
16.851,3.06,-0.39,-4.51
16.892,2.59,-1.57,-4.2
16.933,4.12,-3.73,-3.45
16.974,3.57,-3.65,-3.33
17.015,6.59,-7.41,-4.71
17.056,8.83,-9.81,-10.87
17.102,8.94,-14.71,-6.24
17.22,1.84,-2.35,-6.2
17.32,3.8,-1.02,-5.41
17.548,7.37,-3.37,-4.59
17.589,8.55,-5.02,-5.88
17.63,10.4,-7.02,-4.94
17.671,8.43,-6.63,-9.26
17.712,7.18,-4.55,-12.94
17.753,4.31,-4.39,-13.1
17.794,5.41,-8.16,-8.94
17.835,4,-6.67,-7.1
17.876,5.14,-2.55,-5.88
17.917,4.59,-3.73,-3.22
17.958,5.69,-2.75,-4.94
17.999,3.14,-0.86,-5.02
18.04,3.49,-3.14,-2.28
18.081,5.61,-5.49,-2.24
18.122,6.55,-5.88,-8.28
18.163,10.98,-11.06,-8.94
18.204,7.81,-10.2,-8.2
18.245,3.3,-6.04,-13.93
18.286,3.45,-5.65,-11.69
18.327,3.49,-2.51,-7.57
18.368,3.69,-0.67,-6.98
18.409,1.33,-2.94,-3.45
18.45,5.18,-4.82,-7.85
18.491,5.73,-5.26,-8
18.532,6.2,-4.75,-4.63
18.573,6.35,-3.37,-4.63
18.614,6.9,-2.98,-4.35
18.655,7.14,-3.88,-5.49
18.696,8.94,-5.84,-6.16
18.737,10.4,-7.65,-4.98
18.778,7.88,-5.92,-9.3
18.819,6.86,-4.31,-12.28
18.86,4,-4.28,-12.16
18.901,5.33,-6.86,-9.22
18.942,5.26,-7.02,-6.71
18.983,5.26,-3.22,-6.35
19.024,5.14,-3.77,-4.67
19.065,3.37,-2.31,-3.84
19.106,2.35,-1.92,-2.67
19.147,3.06,-3.02,-1.96
19.188,6.28,-6.2,-3.69
19.229,8.9,-7.34,-9.89
19.27,11.34,-9.69,-5.77
19.311,7.73,-8.32,-8.63
19.352,4.75,-7.57,-15.53
19.393,0.86,-5.77,-9.81
19.434,1.84,-2.59,-5.96
19.475,3.14,-1.26,-6.59
19.516,4.94,-5.73,-7.14
19.557,6.75,-4.39,-8.43
19.598,5.84,-3.22,-5.57
19.639,5.92,-2.71,-4.24
19.68,6.47,-2.2,-3.53
19.721,6.83,-2.31,-3.37
19.762,8.55,-5.22,-6.2
19.803,9.85,-6.79,-6.24
19.844,9.18,-7.96,-6.04
19.885,6.51,-6.28,-11.41
19.926,5.37,-4.35,-14.71
19.967,3.41,-6.67,-12.36
20.008,5.18,-6.35,-7.41
20.049,5.18,-3.53,-6.04
20.09,6.28,-2.9,-4.79
20.131,6.24,-3.37,-5.45
20.172,3.06,-1.61,-4.79
20.213,3.18,-2.47,-1.8
20.254,4.63,-3.69,-0.55
20.295,9.06,-6.86,-6.16
20.336,9.22,-9.81,-11.38
20.377,7.85,-14,-10.24
20.418,2.75,-6.98,-15.53
20.459,2.9,-6.28,-8.04
20.5,2.31,-2.28,-6.98
20.541,3.8,-0.35,-8.28
20.582,2.55,-3.92,-5.1
20.623,8,-4.35,-6.47
20.664,5.18,-3.3,-7.57
20.705,6.04,-4.75,-4.79
20.746,5.53,-4.43,-5.1
20.787,5.14,-4.43,-4.35
20.828,5.73,-5.26,-5.37
20.869,8.59,-6.71,-6.59
20.91,11.34,-8.24,-5.73
20.951,8.51,-5.33,-8.71
20.992,7.45,-2.55,-12.98
21.033,4.35,-4,-14.36
21.074,6.16,-7.37,-8.98
21.115,4,-5.06,-6.98
21.156,4.82,-2.71,-5.81
21.197,4.71,-3.73,-4.24
21.238,5.02,-2.55,-5.22
21.279,1.88,-1.06,-4.75
21.32,2.79,-2.79,-2
21.361,6.08,-6.43,-4.2
21.402,6.55,-7.53,-8.79
21.443,7.85,-9.57,-9.1
21.484,6.79,-11.92,-4.55
21.525,4.82,-7.85,-12.59
21.566,5.53,-7.65,-14.4
21.607,3.53,-2.12,-8.16
21.648,3.61,-0.47,-6.79
21.689,1.92,-0.71,-5.02
21.73,4.39,-4.39,-5.65
21.771,7.14,-5.41,-7.41
21.812,5.41,-5.14,-6.83
21.853,5.14,-4.9,-4.75
21.894,6.55,-4.04,-4.28
21.935,6.63,-3.3,-4.16
21.976,6.75,-4,-6
22.017,8.59,-5.65,-6.32
22.058,10.24,-7.02,-5.3
22.099,9.18,-5.81,-9.61
22.14,6.32,-4.86,-14.08
22.181,5.06,-7.34,-12.36
22.222,3.88,-6.47,-8.67
22.263,3.57,-5.14,-6.04
22.304,4.35,-2.63,-6.55
22.345,5.45,-3.96,-5.06
22.386,5.45,-2.43,-5.49
22.427,2.55,-1.77,-4.59
22.468,2.75,-2.86,-2.98
22.509,4.79,-5.3,-3.69
22.55,5.88,-7.22,-6.71
22.591,6.28,-8.28,-8.55
22.632,7.85,-10.47,-5.65
22.673,5.18,-8.98,-6.12
22.777,5.96,-7.53,-13.14
23.042,6.79,-4.86,-5.14
23.083,7.06,-3.69,-4.82
23.124,6.16,-2.71,-3.73
23.165,5.33,-3.77,-5.45
23.206,10.51,-7.02,-6.24
23.247,11.69,-7.22,-4.94
23.288,8.71,-4.98,-8.51
23.329,6.83,-3.61,-12.59
23.37,4.94,-5.06,-12.98
23.411,4.9,-6.59,-9.53
23.452,4.28,-5.84,-6.43
23.493,4.71,-3.73,-6.28
23.534,5.06,-3.57,-5.22
23.575,4.71,-2.51,-5.1
23.616,3.06,-3.14,-3.33
23.657,3.06,-3.61,-2.16
23.698,5.77,-6.63,-4.16
23.739,7.06,-7.69,-9.45
23.78,8.16,-11.14,-9.02
23.821,7.26,-10.87,-8.39
23.862,2.47,-6.94,-13.89
23.903,4.12,-5.81,-10.63
23.944,3.33,-2.67,-6.71
23.985,3.41,-0.08,-5.45
24.026,3.14,-3.41,-4.47
24.067,7.06,-3.96,-7.69
24.108,5.61,-4.47,-7.18
24.149,5.14,-5.14,-4.71
24.19,5.14,-4.79,-4.94
24.231,6.04,-4.04,-4.67
24.272,6.08,-4.67,-6
24.313,9.06,-6.2,-6.75
24.354,10.71,-6.98,-5.37
24.395,8.55,-5.73,-9.69
24.436,8.51,-5.49,-11.81
24.477,5.33,-4.43,-9.73
24.518,2.59,-5.3,-7.85
24.559,4.79,-5.37,-5.84
24.6,6.75,-5.3,-6.59
24.641,6.39,-3.65,-6.98
24.682,4.47,-2.63,-5.41
24.723,2.08,-2.28,-4.2
24.764,2.51,-3.53,-2.28
24.805,4.47,-5.69,-3.45
24.846,6.32,-7.3,-8.83
24.887,9.96,-10.12,-9.53
24.928,8.9,-11.45,-4.82
24.969,5.3,-6.63,-11.06
25.01,2.51,-6.35,-13.65
25.051,3.41,-3.84,-8.08
25.092,3.73,-0.75,-6.24
25.133,2.12,-0.67,-5.26
25.174,3.57,-5.14,-7.3
25.215,6.86,-5.92,-7.77
25.256,5.3,-5.14,-5.61
25.297,5.69,-3.73,-4.86
25.338,6.39,-3.06,-3.92
25.379,6.59,-3.14,-5.14
25.42,7.34,-5.3,-6.71
25.461,9.41,-6.9,-6.63
25.502,8.71,-5.96,-5.06
25.543,10.12,-5.77,-10.75
25.584,6.94,-5.26,-13.45
25.625,4.71,-5.77,-8.51
25.666,4.51,-4.86,-6.24
25.707,4.43,-4.63,-5.57
25.748,4.98,-3.73,-5.92
25.789,5.14,-3.33,-5.49
25.83,4,-2.51,-4.59
25.871,2.55,-2.55,-3.84
25.912,3.8,-3.8,-2.28
25.953,6.75,-7.22,-4.79
25.994,7.41,-8,-10.63
26.035,8.51,-11.89,-5.22
26.076,4,-7.26,-10.12
26.117,5.06,-6,-16
26.158,4.67,-5.14,-9.53
26.199,3.45,-1.14,-7.61
26.24,1.73,-1.06,-4.04
26.281,4.98,-5.33,-6.39
26.322,4.94,-4.82,-7.81
26.363,4.94,-4.08,-5.57
26.404,6.16,-3.3,-5.02
26.445,7.77,-3.8,-4.35
26.486,7.61,-3.61,-4.63
26.527,6.67,-4.16,-5.73
26.568,9.49,-7.22,-4.2
26.609,8.55,-6.67,-7.61
26.65,8.87,-5.69,-14.12
26.691,4.75,-4.04,-13.81
26.732,5.37,-7.57,-8.94
26.773,5.14,-5.92,-7.53
26.814,6.43,-3.88,-6.51
26.855,4.82,-2.67,-5.06
26.896,3.3,-1.69,-5.06
26.937,2.31,-2.2,-4.39
26.978,2.31,-3.69,-2.75
27.019,4.82,-5.92,-3.06
27.06,7.06,-8.24,-7.77
27.101,8.39,-9.89,-7.37
27.142,7.49,-10.55,-2.55
27.183,4.43,-5.57,-10.94
27.224,5.84,-7.26,-16.44
27.265,3.3,-4.79,-11.02
27.306,3.3,-1.8,-6.55
27.347,2.67,-2.2,-3.18
27.388,4.31,-4.75,-7.41
27.429,4.9,-5.14,-8.55
27.47,4.98,-4.67,-5.49
27.511,5.14,-3.41,-5.18
27.552,7.06,-2.71,-5.18
27.593,7.57,-3.02,-4.63
27.634,7.41,-4.35,-5.77
27.675,8.47,-5.69,-6.24
27.716,9.53,-6.16,-4.16
27.757,7.69,-5.84,-7.41
27.798,7.41,-4.94,-12.28
27.839,5.33,-4.67,-14.47
27.88,4.79,-8.16,-10.51
27.921,3.88,-7.26,-8.08
27.962,4.35,-3.49,-6.55
28.003,4.47,-2.9,-4.79
28.123,6.28,-3.57,-4.71
28.199,2.63,-2.04,-3.92
28.336,6.24,-7.34,-6.71
28.495,3.41,-0.98,-7.02
28.536,1.84,-3.45,-6.08
28.577,7.14,-5.81,-6.12
28.618,5.22,-4.51,-9.38
28.659,4.51,-5.02,-4.86
28.7,5.88,-4.12,-4.86
28.741,6.98,-3.69,-4
28.782,8.04,-3.41,-4.43
28.823,7.06,-3.26,-6.67
28.864,9.34,-4.43,-4.75
28.905,10.43,-6.04,-5.37
28.946,8.59,-6.28,-10.24
28.987,6.08,-4.79,-12.4
29.028,2.75,-5.33,-12.4
29.069,4.79,-7.85,-9.34
29.11,6.12,-6.79,-7.69
29.151,5.57,-2.9,-6.63
29.192,5.06,-3.02,-4.82
29.233,4.43,-2.35,-3.65
29.274,2.82,-2.55,-4.04
29.315,3.14,-3.88,-2.9
29.356,5.41,-4.79,-3.53
29.397,7.14,-7.41,-7.85
29.438,8.71,-9.69,-9.18
29.479,9.61,-12.28,-5.65
29.52,3.77,-6.63,-13.3
29.561,2.31,-5.65,-12.71
29.602,2.71,-3.65,-7.61
29.643,3.69,-1.18,-7.77
29.684,3.06,-3.22,-6.24
29.725,6.32,-5.37,-7.85
29.766,4.63,-4.51,-7.69
29.807,4.51,-4.59,-4.79
29.848,5.18,-3.73,-4.79
29.889,6.24,-3.49,-4
29.93,7.37,-4.24,-4.55
29.971,8.63,-4.82,-6.79
30.012,11.3,-6.12,-4.51
30.053,9.3,-6.12,-8.79
30.094,7.73,-5.61,-12.4
30.135,4.9,-5.26,-12.47
30.176,3.22,-6.98,-8.43
30.217,4.51,-6.08,-7.18
30.258,7.06,-4.43,-6.79
30.299,5.81,-3.84,-6.12
30.34,3.45,-2.08,-5.22
30.381,1.84,-2.28,-3.61
30.422,2.35,-3.1,-2.55
30.463,3.8,-5.18,-2.98
30.504,5.77,-7.53,-6.86
30.545,8.39,-9.53,-11.3
30.586,11.14,-13.93,-5.49
30.627,5.57,-6.55,-12.55
30.668,3.53,-5.96,-12.47
30.709,2.55,-3.45,-7.69
30.75,3.3,-0.55,-6.86
30.791,2.16,-1.92,-7.3
30.832,7.49,-7.02,-6.43
30.873,5.37,-5.37,-8.83
30.914,4.98,-3.77,-4.71
30.955,5.81,-3.49,-4.04
30.996,7.26,-2.86,-3.84
31.037,7.37,-2.63,-4.98
31.078,7.41,-4.55,-5.88
31.119,8.51,-5.92,-4.82
31.16,8.2,-7.14,-7.85
31.201,9.92,-7.34,-12.67
31.242,6.59,-4.98,-12.4
31.283,2.2,-5.53,-9.41
31.324,3.8,-5.06,-7.73
31.365,7.3,-5.33,-7.69
31.406,6.28,-4.63,-6.75
31.447,4.59,-3.1,-5.69
31.488,2.9,-1.49,-4.2
31.529,2.31,-2.04,-2.04
31.57,3.8,-3.57,-2
31.611,6.39,-6.83,-4.94
31.652,6.67,-7.69,-11.69
31.693,7.57,-11.53,-6.83
31.734,6.59,-10.43,-5.73
31.775,4.39,-6.35,-13.89
31.816,3.41,-6.55,-9.49
31.857,3.53,-2.51,-7.26
31.898,3.18,-0.27,-6
31.939,2.79,-2.39,-6.16
31.98,6.98,-5.33,-6.94
32.021,7.45,-3.33,-9.49
32.062,5.53,-4.55,-5.1
32.103,5.22,-3.22,-4.35
32.144,5.73,-2.86,-3.73
32.185,7.85,-4.63,-4.75
32.226,8.12,-5.1,-7.1
32.267,9.41,-6.08,-5.02
32.308,8.47,-6.04,-8.39
32.349,8.32,-5.18,-12.55
32.39,4.71,-4.04,-13.49
32.431,3.96,-7.37,-10.47
32.472,4.82,-6.67,-7.49
32.513,5.41,-4,-7.02
32.554,5.06,-3.8,-4.75
32.595,4.51,-2.16,-4.31
32.636,3.84,-1.77,-3.45
32.677,4.04,-2.55,-2.39
32.718,5.65,-4.31,-3.41
32.759,6.9,-7.14,-6.39
32.8,5.88,-8.36,-12.4
32.841,5.49,-13.45,-4.86
32.882,3.18,-8.75,-13.14
32.923,5.84,-7.06,-12.83
32.964,4.16,-3.06,-9.1
33.005,3.49,0.2,-8.83
33.046,3.22,-0.78,-7.22
33.087,6.39,-4.59,-5.02
33.128,4.47,-3.84,-6.39
33.169,3.45,-4.86,-5.81
33.21,4.98,-6.2,-5.3
33.251,8,-6.32,-5.65
33.292,6.98,-3.49,-5.1
33.333,6.39,-2.55,-4.47
33.374,8.71,-3.73,-6.71
33.415,12.63,-7.57,-5.61
33.456,7.92,-6.2,-10.2
33.497,5.69,-4.04,-12.67
33.538,3.65,-5.22,-12.91
33.579,6.24,-8.9,-9.96
33.62,6.12,-5.81,-8.59
33.789,5.92,-2.43,-5.81
34.021,0.28,-2.79,-7.77
34.504,7.65,-3.69,-5.33
34.545,10.04,-6.2,-5.26
34.879,8.59,-6.24,-9.53
35.5,5.33,-5.73,-5.33
35.541,6.16,-4.94,-4.39
35.764,5.92,-3.33,-4.51
35.992,7.81,-5.06,-5.3
36.033,5.26,-2.71,-5.37
36.074,2.86,-2.39,-3.26
36.115,3.53,-3.61,-0.82
36.156,5.41,-5.65,-3.88
36.197,6.51,-7.53,-9.14
36.238,10.2,-11.14,-7.37
36.279,8.43,-11.61,-8.83
36.32,4.55,-7.06,-17.89
36.361,2.94,-4.94,-8.63
36.402,2.04,-1.14,-5.88
36.443,4.04,-0.51,-6.51
36.484,2.28,-2.59,-7.34
36.525,7.49,-4.9,-6.32
36.566,6.04,-5.81,-8.63
36.607,4.86,-4.31,-5.1
36.648,6.28,-3.8,-4.51
36.689,7.06,-3.45,-3.77
36.73,6.86,-3.26,-4.51
36.771,7.49,-3.45,-6.04
36.812,10.98,-6.16,-5.1
36.853,9.53,-6.79,-10.08
36.894,5.84,-4.35,-13.65
36.935,3.49,-7.26,-12.83
36.976,3.49,-8.59,-9.41
37.017,4.35,-6.59,-7.26
37.058,5.69,-4.31,-5.18
37.099,5.3,-2.94,-5.02
37.14,4.82,-1.26,-4.63
37.181,2.9,0.12,-2.82
37.222,3.8,-2.12,-1.41
37.263,5.81,-4.39,-3.02
37.304,7.53,-6.51,-8.24
37.345,8.32,-10.04,-10.79
37.386,7.37,-14.55,-7.77
37.427,2.9,-7.77,-16.32
37.468,3.02,-5.26,-9.89
37.509,2.67,-2,-6.43
37.55,3.8,-0.51,-7.02
37.591,1.92,-1.92,-6.04
37.632,6.86,-4.67,-5.92
37.673,5.1,-4.79,-7.92
37.714,4.79,-4.35,-5.26
37.755,6.47,-4.59,-5.14
37.796,7.18,-4.35,-4.86
37.837,6.35,-3.14,-4.63
37.878,6.59,-3.45,-5.61
37.919,11.3,-7.65,-5.37
37.96,9.65,-6.98,-7.85
38.001,7.34,-5.1,-11.61
38.042,4.31,-2.94,-13.1
38.083,4.31,-6.94,-10.36
38.124,5.3,-7.26,-7.61
38.165,4.59,-4.55,-6.55
38.206,4.31,-1.96,-5.14
38.247,6.94,-3.22,-4.82
38.288,3.92,-1.8,-4.98
38.329,1.88,-1.41,-3.45
38.37,4.35,-4.08,-1.53
38.411,6.9,-7.3,-5.77
38.452,7.69,-9.45,-11.77
38.493,8.36,-13.69,-5.1
38.534,5.49,-8.67,-12.67
38.575,3.02,-6.75,-15.18
38.616,2.67,-3.84,-7.69
38.657,2.75,-0.35,-6.63
38.698,4.51,-0.98,-5.14
38.739,5.45,-4.28,-4.51
38.78,6.59,-4.31,-7.88
38.821,5.37,-4.63,-5.53
38.862,4.59,-4.67,-5.06
38.903,5.45,-4.43,-4.9
38.944,6.63,-4.28,-4.79
38.985,6.55,-3.8,-5.73
39.026,9.41,-4.79,-5.14
39.067,11.3,-6.59,-6.94
39.108,9.53,-5.45,-11.65
39.149,6.43,-4.86,-12.55
39.19,3.37,-7.06,-12.55
39.231,2.79,-7.45,-8.39
39.272,3.73,-5.37,-5.65
39.313,4.47,-3.73,-5.06
39.354,6.08,-3.88,-4.94
39.395,4.82,-2.16,-4.28
39.436,4.63,-1.53,-3.14
39.477,4.51,-2.39,-2.71
39.518,6.24,-5.81,-3.8
39.559,7.18,-7.49,-8.67
39.6,7.14,-10.16,-9.53
39.641,6.43,-13.14,-6.43
39.682,4.86,-8.39,-14.28
39.723,2.31,-5.88,-13.22
39.764,3.41,-1.96,-7.69
39.805,4.43,-0.16,-7.88
39.846,2.47,-1.92,-4.28
39.887,7.3,-4.04,-6.39
39.928,5.1,-4.28,-7.61
39.969,4.94,-5.26,-5.61
40.01,5.1,-5.61,-5.18
40.051,5.33,-3.61,-4.43
40.092,7.1,-3.8,-4.55
40.133,7.81,-4.47,-6.94
40.174,10.2,-4.98,-5.77
40.215,9.89,-5.92,-5.81
40.256,8.55,-5.1,-11.45
40.297,5.45,-5.22,-15.57
40.338,3.14,-8.28,-11.02
40.379,2.24,-6.43,-8.71
40.42,3.49,-4.86,-6
40.461,5.3,-3.65,-5.57
40.502,6.28,-4.12,-4.98
40.543,3.73,-1.18,-5.3
40.584,2.98,-1.73,-2.59
40.625,4.28,-3.84,-1.1
40.666,6.71,-6,-4.71
40.707,7.73,-7.96,-11.22
40.748,6.79,-10.98,-7.26
40.789,5.18,-10.32,-7.88
40.83,5.22,-6.51,-18.83
40.871,2.79,-5.57,-10.9
40.912,4.55,-1.61,-7.14
40.953,2.86,-0.39,-4.55
40.994,1.77,-2.98,-5.06
41.122,5.77,-4.35,-6.75
41.363,5.06,-5.02,-5.33
41.486,4.39,-6.43,-8.79
41.527,4.2,-5.22,-7.02
41.568,5.33,-3.1,-5.3
41.609,5.69,-3.69,-4.82
41.65,2.94,-1.14,-5.45
41.691,3.18,-2.43,-2.75
41.732,4.51,-3.84,-1.49
41.773,6.47,-5.65,-4.31
41.814,7.61,-7.92,-10.79
41.855,8.51,-13.22,-6
41.896,5.96,-8.36,-11.41
41.937,3.22,-6.51,-16.04
41.978,3.37,-4.31,-8.63
42.019,3.14,-0.78,-6.71
42.06,3.02,-1.22,-5.77
42.101,5.41,-4.67,-5.53
42.142,5.1,-4.79,-7.45
42.183,4.59,-4.86,-5.57
42.224,5.57,-4.9,-4.86
42.265,7.18,-4.28,-4.24
42.306,7.49,-2.82,-4.47
42.347,6.63,-3.06,-5.84
42.388,10.04,-5.65,-4.98
42.429,9.81,-6.83,-7.06
42.47,8.39,-6.32,-12.4
42.511,5.65,-5.49,-14.75
42.552,3.8,-6.16,-9.65
42.593,2.98,-4.98,-8
42.634,5.57,-4.79,-5.84
42.675,6.79,-4.86,-6.32
42.716,6,-3.06,-6.86
42.757,3.37,-2.28,-4.31
42.798,2.35,-2.2,-1.88
42.839,3.73,-3.41,-1.61
42.88,6.39,-6.16,-5.41
42.921,8.2,-9.18,-10.9
42.962,8.2,-12.28,-5.96
43.003,6.08,-9.65,-9.89
43.044,3.73,-7.02,-15.34
43.085,3.69,-5.3,-9.57
43.126,2.86,-1.33,-6.51
43.167,2.16,0,-5.1
43.208,2.79,-4.98,-5.69
43.249,8.12,-5.69,-7.57
43.29,5.3,-5.37,-6.71
43.331,4.75,-4.63,-4.59
43.372,5.06,-4.28,-4.16
43.413,6.59,-3.61,-4.35
43.454,7.18,-4.39,-6.35
43.495,9.02,-4.98,-6.86
43.536,10.87,-6,-5.06
43.577,9.14,-5.65,-8.94
43.618,8.28,-4.51,-11.49
43.659,3.22,-5.1,-13.61
43.7,3.53,-8.63,-11.61
43.741,4.51,-7.73,-7.53
43.782,4.86,-3.77,-6.71
43.823,4.67,-3.02,-4.75
43.864,5.81,-2.55,-4.55
43.905,3.84,-1.49,-3.1
43.946,3.69,-2.43,-1.73
43.987,5.92,-4.63,-3.49
44.028,6.94,-7.37,-8.08
44.069,7.77,-9.22,-11.26
44.11,8,-13.77,-6.51
44.151,5.02,-8.55,-14.83
44.192,2.82,-6.32,-9.45
44.233,2.55,-1.92,-7.06
44.274,4.51,-0.43,-8.71
44.315,2.39,-2.04,-6.51
44.356,7.73,-4.9,-4.71
44.397,4.82,-4.63,-6.94
44.438,4.55,-5.41,-5.77
44.479,5.88,-5.3,-4.51
44.52,6.39,-3.84,-4.28
44.561,7.41,-3.06,-4.31
44.602,7.37,-3.33,-6.16
44.643,10.43,-4.51,-5.33
44.684,10.32,-6.59,-7.22
44.725,7.96,-5.77,-13.26
44.766,4.35,-5.49,-13.93
44.807,1.96,-7.61,-9.45
44.848,2.79,-6.94,-7.14
44.889,5.92,-4.04,-7.02
44.93,6.9,-4.24,-5.84
44.971,4.9,-1.61,-5.1
45.012,3.41,-2.12,-2
45.053,3.06,-2.39,-0.82
45.094,5.02,-3.33,-2.12
45.135,7.88,-6.43,-6.55
45.176,8.98,-10.32,-12.04
45.217,6.39,-12.63,-6.86
45.258,3.33,-8.67,-14.75
45.299,4.28,-7.34,-12.43
45.34,3.57,-3.49,-8.16
45.381,3.73,-0.24,-7.45
45.422,2.35,-1.14,-4.55
45.463,5.1,-3.61,-5.22
45.504,6.28,-4.51,-8.12
45.545,4.94,-4.9,-5.26
45.586,4.9,-5.1,-4.67
45.627,6.55,-4.55,-4.55
45.668,6.9,-4.47,-4.35
45.709,6.98,-3.65,-5.92
45.75,8.94,-4.79,-4.31
45.791,9.92,-6.24,-6.86
45.832,9.41,-6.28,-11.69
45.873,5.81,-4.67,-13.96
45.914,3.41,-7.02,-10.98
45.955,3.8,-6.04,-8.67
45.996,5.33,-6.04,-6.63
46.037,5.81,-3.84,-5.37
46.078,5.81,-2.67,-5.57
46.119,4.04,-1.41,-4.24
46.16,3.18,-1.96,-1.41
46.201,4.35,-2.63,-1.53
46.242,7.3,-5.77,-4.28
46.283,6.32,-8.04,-11.3
46.324,7.77,-12.51,-5.1
46.365,4.12,-8.87,-7.96
46.406,5.18,-6.94,-17.34
46.447,3.61,-7.69,-11.65
46.5,3.41,-2.16,-6.75
46.57,-0.2,-0.59,-6.04
46.667,7.73,-4.82,-8.2
46.98,7.77,-3.69,-13.06
47.021,5.06,-4.2,-13.26
47.062,5.65,-5.73,-9.57
47.103,4.24,-4.98,-7.1
47.144,5.45,-3.37,-6
47.185,6.55,-4.59,-5.18
47.226,4.47,-2.63,-6.24
47.267,3.37,-2.9,-4.67
47.308,2.39,-3.02,-1.45
47.349,5.57,-5.84,-2.86
47.39,8.24,-7.65,-7.22
47.431,8.28,-9.18,-9.22
47.472,7.88,-11.73,-3.61
47.513,5.53,-7.02,-12.12
47.554,3.49,-6.59,-13.14
47.595,4.12,-2.75,-9.1
47.636,3.8,-1.1,-7.81
47.677,2.12,-2.55,-4.75
47.718,6.2,-5.18,-6.24
47.759,4.55,-4.82,-7.77
47.8,3.92,-4.67,-5.69
47.841,6,-4.43,-5.49
47.882,8,-4,-4.9
47.923,7.77,-2.94,-4.39
47.964,7.3,-3.22,-5.53
48.005,8.43,-4.67,-6.16
48.046,9.92,-7.69,-4.71
48.087,6.59,-5.73,-10.32
48.128,6.24,-5.53,-13.73
48.169,3.65,-5.77,-12.12
48.21,5.06,-6.55,-9.61
48.251,6.35,-6.04,-7.06
48.292,6.32,-2.9,-6.75
48.333,4.67,-2.55,-4.35
48.374,4.43,-2.04,-3.61
48.415,3.18,-2.28,-3.53
48.456,2.59,-3.06,-2.79
48.497,5.88,-5.45,-2.82
48.538,7.57,-6.67,-8.36
48.579,8.32,-9.57,-10.32
48.62,8.83,-11.61,-6.71
48.661,5.77,-7.22,-17.14
48.702,-0.2,-5.92,-13.49
48.743,1.92,-2.39,-5.77
48.784,3.8,-0.27,-5.3
48.825,2,-1.69,-6.9
48.866,4.71,-4.59,-7.73
48.907,6.94,-4.12,-5.81
48.948,5.81,-4.59,-5.33
48.989,6.28,-3.69,-4.9
49.03,5.84,-2.63,-3.14
49.071,5.77,-2.24,-4.2
49.112,7.92,-4.79,-6.32
49.153,11.3,-7.1,-5.61
49.194,9.06,-6.12,-6.83
49.235,8,-4.24,-12.67
49.276,5.33,-3.8,-15.06
49.317,4.71,-8.12,-10.32
49.358,4,-6.75,-8.39
49.399,3.8,-4.43,-6.2
49.44,4.31,-3.65,-4
49.481,6.55,-3.77,-4.55
49.522,3.92,-1.69,-4.47
49.563,3.69,-1.53,-1.41
49.604,4.71,-2.94,-1.49
49.645,6.86,-6.35,-6.94
49.686,10.36,-9.73,-9.92
49.727,8.55,-12.91,-3.18
49.768,4.04,-5.88,-10.51
49.809,5.26,-6.79,-17.73
49.85,3.45,-5.49,-10.59
49.891,3.61,-1.96,-6.86
49.932,2.2,-1.96,-4.16
49.973,1.77,-4.94,-5.81
50.014,5.49,-4.39,-7.92
50.055,5.73,-4.98,-5.22
50.096,5.45,-4.35,-5.18
50.137,7.45,-3.73,-4.39
50.178,6.55,-2.59,-3.84
50.219,6.67,-3.77,-5.84
50.26,11.41,-6.79,-5.57
50.301,10.36,-7.26,-7.53
50.342,8.75,-5.57,-10.24
50.383,5.57,-3.53,-12.94
50.424,3.37,-7.22,-10.12
50.465,5.65,-7.1,-7.69
50.506,4.55,-4.47,-7.18
50.547,5.06,-3.49,-4.94
50.588,6.59,-4.28,-4.55
50.629,3.61,-1.41,-4.39
50.67,2.75,-1.22,-2.2
50.711,4.35,-3.02,-1.26
50.752,7.65,-6.75,-4.67
50.793,7.65,-8.51,-10.79
50.834,9.18,-12.87,-5.69
50.875,6.12,-8.47,-12.4
50.916,5.14,-7.37,-16.16
50.957,3.45,-3.49,-8.55
50.998,3.53,-0.39,-6.75
51.039,1.8,-1.8,-4.82
51.08,1.88,-5.02,-6.43
51.121,8.32,-5.53,-6.2
51.162,5.37,-4.43,-6.28
51.203,5.73,-3.73,-4.9
51.244,7.26,-4,-3.65
51.285,6.71,-2.75,-4.63
51.326,6.28,-3.96,-5.88
51.367,10.16,-7.02,-5.77
51.408,9.81,-7.73,-8.71
51.449,10.08,-7.1,-12.32
51.49,5.61,-3.73,-12.2
51.531,2.94,-4.98,-7.73
51.572,3.1,-4.9,-7.81
51.613,5.37,-6.16,-6.32
51.654,5.02,-4.28,-5.65
51.695,5.41,-2.75,-5.61
51.736,3.88,-1.84,-4.04
51.777,3.26,-2.43,-2.35
51.818,4.35,-4.04,-2.24
51.859,6.32,-6.47,-6.39
51.9,8.87,-10.75,-12.2
51.941,8.63,-13.14,-5.45
51.982,6.75,-7.37,-13.49
52.023,2.35,-6.94,-14.79
52.064,2.71,-2.28,-8.2
52.291,5.1,0.47,-8.04
52.474,9.77,-6.24,-5.77
52.515,9.06,-6.94,-7.61
52.556,9.38,-4.63,-11.53
52.597,5.3,-2.71,-14.16
52.638,4.39,-7.06,-10.32
52.679,5.1,-6.71,-7.26
52.72,3.84,-4.47,-6.51
52.761,3.14,-3.96,-5.3
52.802,5.73,-4.71,-5.14
52.843,3.41,-2.39,-4.75
52.884,2.51,-1.8,-1.69
52.925,4.94,-4.12,-1.88
52.966,7.92,-7.61,-5.45
53.007,7.81,-8.2,-9.96
53.048,9.38,-12.75,-3.77
53.089,4.9,-6.98,-12
53.13,5.22,-6.71,-14.67
53.171,3.96,-3.49,-10
53.212,3.77,-1.26,-7.34
53.253,2.12,-1.14,-4.67
53.294,5.26,-4.28,-6.55
53.335,5.92,-5.1,-7.77
53.376,6.04,-5.18,-5.3
53.417,6.24,-3.45,-5.61
53.458,6.98,-3.37,-3.49
53.499,7.02,-2.47,-3.65
53.54,7.22,-4.67,-6.24
53.581,10.36,-7.57,-5.92
53.622,9.38,-7.77,-5.53
53.663,7.81,-5.14,-9.73
53.704,5.41,-2.82,-13.3
53.745,3.45,-6.86,-12.47
53.786,7.61,-8.28,-8.12
53.827,6.24,-3.69,-6.86
53.868,4.75,-2,-4.79
53.909,4.16,-2.2,-3.96
53.95,3.61,-1.57,-4.79
53.991,2.39,-2.98,-4.39
54.032,3.41,-4.63,-3.45
54.073,6.43,-8,-6.43
54.114,5.69,-7.41,-9.06
54.155,9.85,-11.14,-4.63
54.196,7.77,-8.9,-7.37
54.237,7.1,-7.81,-18.44
54.278,0.59,-6.12,-11.85
54.319,2.67,-1.53,-5.26
54.36,3.92,-2.28,-5.57
54.401,2.47,-4.86,-6.55
54.442,8.32,-6.12,-7.22
54.483,5.81,-5.45,-6.43
54.524,4.75,-3.37,-5.33
54.565,5.14,-2.9,-4.75
54.606,7.14,-3.57,-4.16
54.647,7.41,-3.73,-5.49
54.688,8.79,-4.86,-6.55
54.729,11.73,-6.59,-5.77
54.77,8.79,-5.81,-8.32
54.811,7.73,-4.28,-12.87
54.852,4.98,-6.35,-13.34
54.893,3.84,-8.16,-8.71
54.934,2.24,-6.08,-6.32
54.975,4.94,-2.55,-7.18
55.016,7.18,-5.14,-4.59
55.057,6.16,-4,-5.53
55.098,3.1,-1.41,-4.35
55.139,2.55,-1.84,-0.2
55.18,4.71,-4.12,-2.28
55.221,8.08,-7.45,-6.71
55.262,8.63,-9.96,-11.92
55.303,8.43,-12.55,-5.3
55.344,6.16,-8.83,-12.4
55.385,1.33,-7.14,-14.79
55.426,2.9,-2.86,-8.67
55.467,4.24,-0.67,-6.83
55.508,2,-1.57,-4.82
55.549,5.45,-4.98,-5.06
55.59,6.12,-4.9,-8.24
55.631,5.33,-4.31,-4.08
55.672,6.08,-2.94,-4.67
55.713,6.94,-2.55,-4.08
55.754,8.24,-3.18,-4.71
55.795,7.77,-3.73,-6.2
55.836,9.92,-4.67,-4.9
55.877,10.36,-6.94,-6.28
55.918,6.79,-5.61,-14.4
55.959,5.37,-6.9,-13.93
56,5.06,-9.69,-10.71
56.041,2.82,-6.67,-7.88
56.082,4.31,-3.92,-5.84
56.123,4.28,-2.16,-3.41
56.164,6.43,-2.39,-3.92
56.205,4.86,-1.8,-4.51
56.246,3.06,-2.94,-3.53
56.287,5.65,-4.71,-2.98
56.328,6.51,-6.63,-6.55
56.369,6.71,-8.75,-9.69
56.41,7.45,-11.41,-4.71
56.451,4.9,-9.61,-9.61
56.492,5.96,-8,-15.81
56.533,3.73,-5.65,-11.18
56.574,4.08,-1.65,-8.2
56.615,3.45,-0.31,-6.71
56.656,1.57,-2.71,-4.98
56.697,6.24,-4.71,-5.81
56.738,5.61,-5.3,-6.83
56.779,6.55,-5.73,-5.77
56.82,6.86,-4.51,-4.75
56.861,6.63,-2.98,-3.73
56.902,6.2,-2.9,-4.63
56.943,8.71,-5.53,-5.73
56.984,10.87,-7.45,-5.18
57.025,8.47,-5.96,-9.65
57.066,7.37,-4.47,-12.4
57.107,4.55,-5.1,-13.45
57.148,4,-7.53,-9.85
57.189,4.16,-7.1,-6.55
57.23,4.79,-3.26,-6
57.271,4.94,-3.65,-4.59
57.312,6,-2.94,-5.06
57.353,4.16,-2.16,-3.26
57.394,3.14,-2.43,-2.67
57.435,4.98,-5.06,-2.71
57.502,5.65,-6.51,-8.08
57.558,9.53,-13.06,-4.39
57.62,4.98,-7.45,-12.83
57.783,3.41,-3.3,-8.28
57.927,4.98,-3.84,-4.98
57.968,7.06,-4.2,-4.59
58.009,7.65,-3.69,-4.43
58.05,6.55,-3.65,-5.37
58.091,8.94,-5.1,-4.71
58.132,9.65,-6.35,-6.55
58.173,9.34,-6.32,-12.55
58.214,5.69,-5.37,-15.57
58.255,3.06,-7.18,-9.57
58.296,2.71,-5.3,-7.3
58.337,5.88,-4.9,-6.16
58.378,5.92,-4.31,-5.18
58.419,4.55,-2.16,-6.12
58.46,3.73,-1.69,-3.22
58.501,3.45,-2.47,-1.53
58.542,5.41,-4.08,-2.08
58.583,7.65,-6.63,-5.81
58.624,6.59,-8.94,-10.87
58.665,7.96,-15.02,-8.94
58.706,4.12,-9.81,-17.22
58.747,4.04,-7.1,-10.4
58.788,2.28,-1.14,-6.67
58.829,2.28,0.08,-5.3
58.87,2.39,-0.59,-7.3
58.911,6.71,-4.67,-2.86
58.952,8.32,-5.02,-6.51
58.993,5.22,-4.75,-6.51
59.034,5.33,-5.22,-3.88
59.075,6.2,-4.16,-4.31
59.116,6.43,-4,-4.82
59.157,6.47,-4.43,-5.81
59.198,10.63,-5.65,-5.1
59.239,11.1,-6.2,-7.26
59.28,10,-2.86,-11.89
59.321,4.63,-3.06,-14.04
59.362,2.55,-8.16,-11.3
59.403,5.53,-6.67,-8.67
59.444,6.86,-5.65,-6.71
59.485,4.35,-3.49,-6.32
59.526,3.84,-1.02,-5.65
59.567,2.59,-1.02,-1.84
59.608,3.65,-2.24,-0.78
59.649,5.06,-4.55,-3.45
59.69,7.96,-7.53,-6.75
59.731,8.51,-9.69,-10.36
59.772,8.71,-12.75,-4.98
59.813,4.9,-6.94,-14.87
59.854,4.24,-7.61,-11.81
59.895,2.82,-2.16,-7.77
59.936,3.77,0.04,-6.39
59.977,2.43,-1.06,-5.22
60.018,6.71,-5.33,-5.26
60.059,6.04,-5.3,-7.65
60.1,4.86,-4.47,-5.14
60.141,5.65,-4.82,-4.67
60.182,7.18,-4.04,-4.24
60.223,7.06,-3.3,-4.9
60.264,7.49,-4.28,-5.65
60.305,9.53,-6.47,-5.37
60.346,10.36,-6.24,-12.24
60.387,5.69,-5.3,-14.55
60.428,5.41,-8.79,-11.22
60.469,2.79,-5.26,-10.08
60.51,4,-3.26,-5.96
60.551,4.9,-3.96,-5.18
60.592,5.45,-3.8,-5.14
60.633,4.86,-2.28,-5.41
60.674,4.28,-2.59,-3.53
60.715,5.22,-4.47,-3.84
60.756,6.16,-5.73,-5.77
60.797,4.55,-5.06,-6.63
60.838,5.33,-7.3,-5.14
60.879,6.04,-6.86,-5.02
60.92,7.3,-5.73,-14.75
60.961,12.47,-8.71,-15.26
61.002,4.2,-2.9,-7.77
61.043,1.61,-0.86,-2
61.084,2.43,-1.45,-5.06
61.125,5.96,-2.75,-10.98
61.166,12.36,-8.16,-6.2
61.207,5.1,-3.77,-9.06
61.248,5.33,-4.31,-6.35
61.289,4.79,-4.94,-6.63
61.33,5.02,-5.53,-7.45
61.371,6,-5.69,-7.53
61.412,5.92,-5.22,-7.96
61.453,4.55,-4.63,-6.67
61.494,4.2,-5.02,-7.34
61.535,5.26,-5.92,-7.53
61.576,5.69,-5.65,-7.37
61.617,5.41,-5.1,-6.47
61.658,5.96,-5.1,-6.51
61.699,6.59,-5.3,-6.86
61.74,6.35,-5.02,-6.94
61.781,5.92,-5.02,-6.47
61.822,5.37,-5.1,-6.43
61.863,5.53,-5.65,-6.86
61.904,5.65,-5.3,-6.71
61.945,6.08,-5.1,-6.39
61.986,6.16,-5.02,-6.08
62.027,5.92,-5.1,-6.35
