NAME:,walk_1_1.csv,,
EXPERIMENT TIME:,05/06/2023 20:25,,
ACTIVITY TYPE:,Walking,,
COUNT OF ACTUAL STEPS:,101,,
,,,
Time [sec],ACC X,ACC Y,ACC Z
0,6.24,-4.79,-6.2
0.041,6.75,-6,-6.08
0.082,5.49,-5.41,-6.71
0.123,6.51,-4.9,-6.2
0.164,7.45,-3.84,-5.88
0.205,8.08,-3.57,-5.69
0.246,7.81,-3.49,-5.92
0.287,6.83,-4.35,-5.22
0.328,6.98,-4.71,-5.65
0.369,6.63,-4.08,-5.81
0.41,7.06,-3.88,-5.06
0.451,6.9,-3.77,-5.53
0.492,6.94,-4.86,-5.37
0.533,7.61,-5.69,-5.02
0.574,7.1,-5.84,-5.3
0.615,9.1,-5.1,-9.77
0.656,11.45,-7.53,-10.71
0.697,6.83,-6.24,-12.87
0.738,2.59,-4.2,-8.75
0.779,2.9,-4.12,-4.12
0.82,5.02,-4.43,-5.77
0.861,7.88,-4.67,-4.98
0.902,5.73,-3.06,-5.92
0.943,5.41,-3.53,-4.98
0.984,1.53,-3.41,-4.98
1.025,1.69,-4.86,-4.82
1.066,4.47,-6.63,-4.47
1.107,6.04,-6.98,-5.02
1.148,6.55,-5.41,-5.22
1.189,6.75,-7.53,-4.35
1.23,8.59,-9.81,-5.77
1.271,8.47,-10.08,-14.24
1.312,1.29,-7.81,-7.61
1.353,2.28,-5.73,-6.83
1.394,3.37,-2.16,-7.96
1.435,4.82,-3.8,-6.86
1.476,8.04,-4.86,-4.28
1.517,5.18,-2.71,-6.32
1.558,4.71,-2.71,-6.32
1.599,6.08,-3.41,-5.73
1.64,8.16,-4.9,-4.59
1.681,6.12,-3.73,-4.94
1.722,6.59,-3.73,-4.31
1.763,7.06,-5.14,-5.45
1.804,8.08,-6.24,-5.61
1.845,8.9,-7.88,-3.8
1.886,7.77,-6.32,-6.51
1.927,7.61,-2,-15.61
1.968,7.34,-5.53,-11.73
2.009,8.75,-9.06,-9.85
2.05,2.51,-4.98,-6.59
2.091,2.55,-1.96,-2.31
2.132,2.63,-0.43,-5.49
2.173,4.59,-2.9,-6.59
2.214,8.63,-5.26,-3.61
2.255,3.02,-3.61,-3.65
2.296,4.86,-5.88,-2.43
2.337,8.36,-6.32,-4.55
2.378,10.16,-5.22,-6.28
2.419,10.59,-6.71,-1.73
2.46,6.9,-7.61,-9.65
2.501,4.2,-9.26,-18.99
2.542,2.79,-7.34,-10.04
2.583,4.86,-2.43,-5.65
2.624,1.69,-1.14,-4.04
2.665,2.98,-1.69,-7.65
2.706,8.08,-3.61,-4.98
2.747,8.63,-2.86,-6.43
2.788,7.22,-1.77,-4.79
2.829,6.83,-2.43,-2.47
2.87,6.04,-3.22,-4.04
2.911,7.49,-5.45,-5.88
2.952,10.63,-7.92,-6
2.993,9.26,-6.35,-6.47
3.034,9.38,-4.08,-10.47
3.075,8.04,-3.92,-11.65
3.116,5.1,-6.35,-12.63
3.157,5.33,-7.37,-7.65
3.198,4.39,-5.81,-4.47
3.239,4,-1.45,-6.16
3.28,4.79,-3.06,-4.39
3.321,7.14,-2.79,-4.71
3.362,3.1,-2.47,-4.98
3.403,2.55,-4.04,-4.16
3.444,5.18,-6.39,-4.2
3.485,5.41,-7.96,-5.53
3.526,9.41,-6.98,-4
3.567,8.55,-5.45,-2.9
3.608,8.04,-6.12,-5.22
3.649,8.16,-10.36,-17.38
3.69,-0.51,-7.61,-14.98
3.731,4.16,-6.04,-4.08
3.772,1.26,-1.92,-2.75
3.813,2.24,-2.86,-9.14
3.854,4.9,-3.33,-11.3
3.895,10.98,-5.77,-2.43
4.001,7.1,-2.16,-6.83
4.018,9.02,-2,-2.82
4.228,9.06,-2.51,-5.45
4.387,4.63,0.16,-4.2
4.428,2.71,-3.37,-2.12
4.469,4.31,-3.22,-4.55
4.51,2.94,-4.08,-4.08
4.551,4.08,-4.55,-4.9
4.592,6.51,-6.83,-5.45
4.633,6.43,-6.98,-5.96
4.674,8.51,-7.65,-4.35
4.715,8.2,-8.16,-3.88
4.756,8,-8.98,-10.67
4.797,1.61,-6.55,-13.81
4.838,3.18,-3.8,-6.71
4.879,3.73,-0.51,-4
4.92,1.61,-1.53,-5.77
4.961,5.45,-5.18,-7.65
5.002,8.47,-6.55,-6.28
5.043,6,-3.77,-5.53
5.084,6.55,-2,-4.47
5.125,7.49,-1.92,-3.37
5.166,8.24,-2.94,-4.63
5.207,8.32,-4.24,-5.65
5.248,9.49,-6.47,-5.3
5.289,10.24,-7.77,-4.98
5.33,9.73,-4.94,-10.98
5.371,7.3,-3.65,-10.59
5.412,6.79,-5.02,-9.53
5.453,7.26,-5.1,-7.49
5.494,3.49,-2.55,-8.87
5.535,1.84,-1.84,-6
5.576,5.18,-5.81,-3.18
5.617,7.1,-6.51,-5.77
5.658,5.26,-4.63,-4.28
5.699,6.08,-3.33,-1.61
5.74,7.81,-1.88,-1.92
5.781,9.73,-2.86,-4.35
5.822,12.83,-7.81,-1.92
5.863,8.16,-6.94,-10.59
5.904,6.86,-9.34,-15.77
5.945,4.63,-7.77,-8.55
5.986,2.63,-2.75,-6
6.027,2.16,-0.51,-3.37
6.068,3.69,-1.88,-6.28
6.109,9.1,-5.45,-4.47
6.15,7.65,-4.51,-7.26
6.191,5.37,-3.33,-4.9
6.232,4.67,-2.82,-4.59
6.273,5.02,-3.8,-3.73
6.314,7.22,-5.49,-5.53
6.355,9.57,-4.94,-6.59
6.396,11.81,-4.16,-4.51
6.437,11.45,-4,-9.85
6.478,12.87,-5.96,-10.83
6.519,5.77,-5.53,-13.65
6.56,3.14,-6.67,-7.96
6.601,3.84,-7.81,-6.12
6.642,3.22,-4.47,-6.71
6.683,3.02,-3.26,-4.04
6.724,6.28,-3.26,-4.12
6.765,5.49,-2.2,-2.67
6.806,4.51,-2.67,-2.08
6.847,5.92,-4.35,-3.3
6.888,6.9,-6.67,-6.16
6.929,9.69,-9.18,-4.98
6.97,8.32,-9.18,-2.51
7.011,7.49,-8.51,-6.9
7.052,9.22,-9.26,-15.14
7.093,2.9,-6.79,-12.12
7.134,4.31,-1.41,-6.67
7.175,2.86,0.04,-3.22
7.216,1.96,-2.82,-5.14
7.257,6.59,-4.86,-6.71
7.298,7.18,-5.33,-5.84
7.339,6.39,-4,-5.53
7.38,7.06,-3.02,-4.43
7.421,7.02,-2.35,-3.53
7.462,7.69,-3.18,-4.16
7.503,7.88,-4.43,-5.41
7.544,9.61,-5.61,-4.39
7.585,9.81,-5.73,-5.3
7.626,9.89,-5.1,-10
7.667,9.69,-7.61,-13.18
7.708,4.86,-6.98,-12.91
7.749,2.63,-5.53,-6.43
7.79,2.55,-3.41,-4.47
7.831,4.24,-2.98,-5.61
7.872,7.02,-6.08,-3.49
7.913,6.83,-3.26,-5.26
7.954,3.37,-2.47,-2.86
7.995,4.39,-3.33,-1.33
8.036,5.65,-4.24,-3.26
8.077,6.79,-6,-4.2
8.118,8.28,-7.92,-6.35
8.159,7.53,-10.67,-5.33
8.2,11.3,-10.47,-14.32
8.241,2.82,-7.69,-14.79
8.282,3.37,-3.06,-8.2
8.323,4.28,-0.27,-4.59
8.364,0.04,0.43,-0.98
8.405,5.61,-2,-6.08
8.446,9.3,-5.49,-6.12
8.487,6.79,-4.43,-6.67
8.528,5.1,-3.84,-5.06
8.569,5.45,-3.77,-4.59
8.61,7.3,-4,-3.84
8.651,7.37,-3.8,-4.79
8.692,7.34,-4.63,-5.61
8.733,10.36,-7.92,-4.86
8.774,9.96,-6.67,-8.28
8.815,9.96,-4.24,-11.57
8.856,7.57,-5.96,-13.69
8.897,3.49,-5.69,-12.36
8.938,2.51,-4.43,-4.98
8.979,3.8,-3.3,-3.8
9.02,4.79,-2.12,-7.14
9.061,13.69,-7.3,-0.47
9.102,7.37,-2.04,-6.94
9.143,2.79,-0.35,-3.8
9.184,3.96,-1.26,-1.02
9.225,6.35,-5.41,-2.98
9.266,7.22,-7.57,-8.83
9.307,9.3,-10.59,-6.39
9.348,7.06,-9.53,-4.75
9.389,7.06,-8.04,-13.81
9.43,7.02,-8,-11.77
9.471,3.37,-1.77,-6.39
9.625,3.45,0,-3.49
9.881,7.53,-5.73,-5.88
9.922,9.61,-9.89,-6.63
9.963,8.12,-9.57,-9.53
10.004,8.39,-1.65,-13.96
10.045,5.37,-3.57,-10.16
10.086,9.73,-6.67,-7.92
10.127,3.14,-1.88,-5.84
10.168,5.65,-1.02,-5.65
10.209,6.08,-5.77,-5.73
10.25,3.45,-4.55,-6.98
10.291,1.1,-3.1,-3.1
10.332,2.08,-4.31,-3.88
10.373,5.22,-5.1,-4.16
10.414,7.65,-5.02,-3.69
10.455,8.98,-5.02,-5.37
10.496,9.02,-6.75,-3.8
10.537,7.34,-7.85,-6.55
10.578,7.57,-9.45,-19.93
10.619,0.16,-7.57,-16.28
10.66,5.18,-5.88,-5.3
10.701,3.22,-0.35,-2.82
10.742,1.92,-1.61,-4.94
10.783,2.94,-2.79,-10.36
10.824,11.38,-7.22,-2.75
10.865,7.02,-4.43,-7.53
10.906,5.53,-1.84,-5.49
10.947,7.77,-2.47,-2.82
10.988,8.2,-2.71,-4.16
11.029,6.67,-3.33,-4.94
11.07,9.06,-5.88,-4.35
11.111,9.73,-7.49,-5.26
11.152,9.41,-6.71,-10.83
11.193,9.96,-4.67,-11.85
11.234,6.35,-4.31,-13.42
11.275,5.02,-5.65,-6.75
11.316,3.73,-4.12,-4.28
11.357,3.18,-1.96,-4.28
11.398,5.02,-2.16,-4.79
11.439,11.65,-5.41,-4.28
11.48,5.92,-3.1,-6.75
11.521,3.61,-3.49,-4.55
11.562,4.98,-5.14,-2.39
11.603,5.3,-6,-5.61
11.644,7.65,-6.94,-6.47
11.685,8.51,-6.94,-4.75
11.726,8.36,-7.61,-4.2
11.767,8.04,-8.36,-10.75
11.808,4.55,-7.96,-13.22
11.849,2.39,-4.04,-7.77
11.89,3.02,-1.14,-6.24
11.931,1.8,-1.22,-5.41
11.972,4.24,-2.82,-5.92
12.013,11.34,-6.35,-5.84
12.054,7.26,-3.14,-6.43
12.095,6.35,-2.43,-3.92
12.136,6.32,-2.31,-3.18
12.177,6.9,-2.79,-4.24
12.218,7.06,-4.24,-5.1
12.259,7.81,-5.3,-5.69
12.3,8.51,-5.96,-4.71
12.341,8.83,-5.18,-8.28
12.382,11.85,-5.02,-11.34
12.423,9.61,-6.2,-12.4
12.464,4.16,-5.84,-10.2
12.505,2.04,-4.94,-6.39
12.546,3.57,-5.18,-4.98
12.587,5.3,-4.28,-6.08
12.628,7.92,-4.86,-5.37
12.669,5.92,-2.55,-6
12.71,3.53,-1.57,-3.57
12.751,4,-2.67,-0.94
12.792,5.02,-4.39,-3.33
12.833,7.73,-7.85,-6.86
12.874,7.77,-8.9,-6.9
12.915,8.55,-9.73,-3.18
12.956,8.12,-8.12,-7.88
12.997,6.83,-8.12,-16.32
13.038,2.9,-5.26,-12.75
13.079,4.51,-1.88,-7.88
13.12,1.8,-0.59,-1.57
13.161,1.1,-1.92,-4.86
13.202,6.16,-4.75,-8.24
13.243,7.49,-6.08,-6.59
13.284,6.83,-3.69,-5.14
13.325,6.71,-2.28,-4.9
13.366,7.34,-2.2,-2.35
13.407,7.37,-3.1,-4.35
13.448,8.51,-5.88,-6.12
13.489,9.57,-7.77,-5.37
13.53,7.1,-5.69,-10.98
13.571,10.79,-5.18,-12.94
13.612,6.83,-6.63,-13.22
13.653,3.84,-5.06,-7.1
13.694,5.33,-4.39,-4.43
13.735,5.77,-2.24,-6.35
13.776,6.59,-3.41,-5.33
13.817,6.63,-3.41,-5.18
13.858,2.98,-2.67,-3.77
13.899,2.04,-3.49,-3.69
13.94,4.2,-5.18,-4.55
13.981,5.61,-7.1,-6.67
14.022,7.96,-9.26,-7.37
14.063,8.67,-9.41,-4.2
14.104,5.96,-8.36,-6.47
14.145,6.67,-8.47,-17.1
14.186,3.3,-6.32,-10.94
14.227,4.2,-2.2,-7.06
14.268,2.31,-0.27,-3.77
14.309,0.08,0.55,-6.79
14.35,6.51,-4.28,-7.34
14.391,9.45,-5.92,-6.59
14.432,5.73,-3.49,-4.71
14.473,6,-1.65,-4.35
14.514,7.96,-2.67,-2.98
14.555,8.47,-3.61,-4.79
14.596,8,-5.3,-5.1
14.637,8.63,-6.79,-4.9
14.678,9.1,-6.32,-11.53
14.719,9.26,-5.53,-14.16
14.76,6.12,-5.45,-12.08
14.801,4.43,-4.12,-6.83
14.842,4.12,-3.73,-4.75
14.883,5.69,-3.02,-6.12
14.924,6.12,-3.8,-4.94
14.965,5.77,-2.71,-5.65
15.006,2.59,-2.79,-3.92
15.244,2.75,-4,-2.55
15.375,4.04,-1.02,-6.32
15.416,3.41,-2.16,-7.26
15.457,7.1,-4.12,-5.61
15.498,7.06,-4,-7.1
15.539,5.81,-2.39,-5.26
15.58,6.39,-2.28,-4.12
15.621,7.37,-2.86,-3.41
15.662,7.26,-3.53,-4.08
15.703,7.37,-4.79,-6.43
15.744,11.41,-8.59,-5.06
15.785,9.65,-7.57,-7.69
15.826,8.87,-3.69,-11.92
15.867,5.57,-3.57,-12.55
15.908,5.61,-7.57,-8.39
15.949,4.86,-6.04,-6.55
15.99,4.28,-3.8,-4.86
16.031,4.82,-1.37,-5.06
16.072,7.92,-4.24,-4.31
16.113,4,-2.31,-4.86
16.154,2.04,-2.9,-2.9
16.195,4.94,-4.82,-2.39
16.236,6.75,-6.28,-6.12
16.277,9.92,-8.67,-7.02
16.318,9.14,-9.1,-4.63
16.359,8.04,-8,-10.24
16.4,4.47,-7.18,-15.06
16.441,2.51,-5.73,-9.45
16.482,3.49,-2,-6.75
16.523,2.51,-1.92,-5.96
16.564,5.14,-4.51,-5.53
16.605,7.37,-4.63,-7.34
16.646,4.55,-3.45,-4.55
16.687,5.96,-2.47,-4.98
16.728,8.12,-3.14,-3.41
16.769,8.12,-2.63,-3.84
16.81,7.3,-3.49,-4.86
16.851,8.39,-5.06,-5.45
16.892,10.43,-7.41,-5.3
16.933,9.73,-6.51,-10.28
16.974,8.55,-6.08,-13.45
17.015,5.18,-5.61,-10.32
17.056,4.2,-4.28,-7.1
17.097,4.59,-4.9,-5.14
17.138,5.92,-3.69,-6.39
17.179,6.63,-3.14,-5.41
17.22,5.26,-2.63,-4.43
17.261,2.55,-2.04,-3.69
17.302,3.18,-3.49,-2.79
17.343,5.33,-5.57,-4.31
17.384,6.55,-7.26,-6.9
17.425,7.18,-8.32,-6.71
17.466,8.87,-8.9,-4.51
17.507,7.53,-8.36,-9.18
17.548,6.16,-8.55,-16.24
17.589,0.43,-6,-11.49
17.63,2.71,-2.63,-6.79
17.671,4.63,-0.27,-5.65
17.712,2.2,-5.33,-4.71
17.753,6.39,-3.84,-7.3
17.794,6.59,-3.61,-6.79
17.835,5.65,-3.37,-5.84
17.876,7.02,-3.02,-5.1
17.917,7.49,-2.94,-4.12
17.958,6.86,-3.02,-4
17.999,5.77,-3.57,-4.9
18.04,8.75,-5.45,-5.61
18.081,9.92,-6.2,-6.28
18.122,9.49,-5.3,-7.18
18.163,10,-4.04,-10
18.204,6.71,-4.71,-13.02
18.245,4.28,-7.45,-10.55
18.286,3.53,-7.18,-7.18
18.327,5.26,-4.59,-6.83
18.368,5.69,-3.57,-6.04
18.409,7.26,-4.24,-4.67
18.45,5.18,-2.12,-4.47
18.491,2.63,-2.12,-2.71
18.532,3.53,-3.06,-1.84
18.573,5.53,-5.33,-5.81
18.614,8.04,-7.14,-7.92
18.655,8.47,-8.71,-6.79
18.696,8.16,-8.24,-3.1
18.737,7.1,-8.36,-6.12
18.778,6.94,-8.04,-13.69
18.819,1.45,-5.69,-10.98
18.86,2.75,-2.71,-7.06
18.901,3.77,-0.63,-6.28
18.942,2.82,-4.43,-4.43
18.983,5.18,-4.04,-8.32
19.024,6.71,-5.37,-7.22
19.065,6.98,-4.12,-5.57
19.106,6.94,-2.39,-4.35
19.147,7.22,-2.67,-3.22
19.188,7.14,-3.41,-4.43
19.229,8.04,-5.61,-5.26
19.27,9.57,-6.9,-4.86
19.311,9.14,-5.96,-7.65
19.352,9.3,-5.06,-11.02
19.393,6.08,-4.31,-12.98
19.434,4.12,-6.2,-9.18
19.475,4.63,-6.28,-5.65
19.516,4.98,-4,-6.39
19.557,5.61,-2.79,-6.04
19.598,7.53,-2.82,-5.41
19.639,4.16,-2.28,-5.02
19.68,3.14,-2.82,-3.65
19.721,4.71,-4.59,-2.63
19.762,5.88,-6.04,-5.33
19.803,8.08,-6.63,-7.88
19.844,9.38,-8.39,-5.96
19.885,8.04,-8.28,-6
19.926,5.37,-6.94,-11.49
19.967,1.45,-6.83,-12.32
20.008,3.88,-5.49,-7.1
20.049,3.61,-1.53,-6.86
20.09,2.31,-2.55,-6.94
20.131,5.69,-4.86,-6.51
20.172,5.02,-4.63,-7.92
20.213,5.53,-3.96,-5.92
20.254,7.14,-3.3,-4.9
20.295,7.45,-2.59,-3.61
20.336,7.41,-2.08,-3.92
20.377,7.06,-3.65,-4.67
20.518,8.63,-6.9,-5.22
20.828,1.96,-3.06,-3.37
20.869,2.98,-4.24,-3.53
20.91,6.67,-6.55,-4.75
20.951,7.65,-6.9,-6.98
20.992,9.14,-7.1,-5.65
21.033,8.87,-8.75,-5.37
21.074,7.06,-8.28,-13.85
21.115,1.33,-7.92,-14.91
21.156,3.49,-5.73,-6.39
21.197,3.26,-0.39,-4.82
21.238,1.69,-1.29,-6.59
21.279,5.1,-4.08,-7.69
21.32,8.71,-5.69,-6.63
21.361,6.08,-4.59,-7.88
21.402,5.61,-2.82,-5.14
21.443,6.75,-3.06,-3.18
21.484,8.51,-3.96,-4
21.525,7.69,-3.84,-5.22
21.566,8.55,-5.65,-4.24
21.607,9.57,-6.9,-5.77
21.648,10.79,-4.75,-12.2
21.689,7.53,-5.33,-13.81
21.73,4.39,-6.2,-10.32
21.771,4.31,-4.75,-6.63
21.812,4.86,-4.28,-4.94
21.853,5.06,-2.86,-6.47
21.894,5.73,-3.33,-4.98
21.935,4.82,-2.82,-3.73
21.976,2.39,-2.59,-2.63
22.017,4.16,-3.84,-2.98
22.058,7.26,-7.3,-4.55
22.099,6.98,-6.55,-7.73
22.14,8.79,-8.43,-4.86
22.181,8.32,-9.45,-4.51
22.222,7.77,-8.75,-16.36
22.263,2.08,-7.49,-13.77
22.304,3.37,-3.41,-7.77
22.345,2.43,-0.51,-4.39
22.386,1.14,-0.59,-5.06
22.427,3.26,-3.49,-8.67
22.468,10.51,-6.86,-5.92
22.509,6.59,-3.41,-7.45
22.55,5.96,-1.92,-4.79
22.591,6.9,-1.92,-2.59
22.632,8.08,-2.82,-3.69
22.673,8.08,-4.08,-5.18
22.714,7.73,-4.86,-4.63
22.755,9.06,-6.2,-3.53
22.796,10.4,-5.88,-9.1
22.837,10.08,-4.71,-13.81
22.878,6.55,-4.86,-11.73
22.919,4.24,-5.57,-7.61
22.96,4.47,-4.79,-7.1
23.001,6.59,-3.8,-6.67
23.042,5.77,-3.88,-5.84
23.083,4.59,-2.28,-4.71
23.124,2.98,-2.12,-3.65
23.165,2.24,-2.59,-3.65
23.206,4.98,-5.14,-2.98
23.247,6.59,-7.41,-6.47
23.288,7.65,-7.81,-7.65
23.329,9.96,-9.02,-3.65
23.37,9.69,-8.2,-11.49
23.411,5.06,-7.61,-15.38
23.452,3.02,-5.26,-7.14
23.493,2.59,-1.65,-4.63
23.534,2.24,-1.02,-5.57
23.575,3.18,-3.61,-9.41
23.616,10,-7.06,-5.53
23.657,6.98,-5.14,-7.57
23.698,4.59,-2.82,-5.49
23.739,6.16,-2.2,-4.24
23.78,7.92,-3.49,-4.08
23.821,6.24,-3.49,-4.59
23.862,7.45,-4.59,-5.84
23.903,11.45,-7.96,-5.37
23.944,10.12,-6.24,-9.81
23.985,9.26,-3.96,-11.77
24.026,6.04,-4.43,-11.92
24.067,2.39,-5.02,-6.9
24.108,2.94,-4.31,-5.1
24.149,5.88,-4.43,-7.14
24.19,7.49,-5.02,-6.2
24.231,8.12,-3.18,-6.43
24.272,4.31,-2.04,-4.12
24.313,2.39,-1.8,-2.16
24.354,4.63,-3.88,-1.53
24.395,6.71,-5.92,-4.98
24.436,8.47,-7.37,-8.2
24.477,10.04,-9.41,-6.71
24.518,9.38,-8.79,-4.12
24.559,7.41,-7.06,-10.16
24.6,2,-7.26,-12.67
24.641,1.73,-4.04,-9.22
24.682,4.63,-1.41,-6.47
24.723,2.28,-2.39,-4.98
24.764,3.88,-3.73,-6.94
24.805,7.61,-5.65,-8.47
24.846,7.65,-4.59,-6.28
24.887,6.86,-2.59,-4.47
24.928,6.2,-1.33,-2.51
24.969,5.69,-1.41,-3.57
25.01,7.65,-3.96,-5.26
25.051,11.18,-7.37,-6.32
25.092,10,-5.81,-5.77
25.133,9.22,-4.12,-7.92
25.174,8.59,-3.33,-10.4
25.215,5.33,-3.92,-13.06
25.256,4.35,-7.1,-9.57
25.297,4.51,-7.3,-6.2
25.338,4.55,-3.1,-7.65
25.379,5.81,-4.04,-4.98
25.42,7.61,-2.71,-4.86
25.461,4,-1.1,-4.2
25.502,3.02,-1.49,-1.65
25.543,6.08,-4.39,-1.8
25.584,7.57,-6.79,-8.16
25.625,9.26,-7.88,-7.96
25.666,8.71,-10.94,-4.98
25.707,6.79,-7.81,-14.16
25.748,3.53,-9.1,-11.02
25.789,2.75,-4.35,-7.69
25.83,3.41,-0.98,-6.83
25.871,2.51,-1.49,-8
25.912,7.92,-5.73,-4.59
26.012,6.9,-5.33,-7.77
26.322,8.79,-4.9,-12.47
26.363,4.59,-4.9,-11.49
26.404,4.31,-4.43,-7.57
26.445,4.9,-4.28,-5.06
26.486,5.73,-3.06,-6.98
26.527,6.08,-3.65,-5.96
26.568,5.81,-2.59,-5.45
26.609,2.51,-2.59,-4.08
26.65,2.75,-3.65,-2.08
26.691,4.9,-5.57,-4.2
26.732,7.02,-8.32,-6.55
26.773,7.41,-8.51,-7.61
26.814,8.55,-10,-3.45
26.855,7.3,-8.32,-8.04
26.896,6.28,-7.41,-14.91
26.937,3.49,-4.67,-8.98
26.978,3.53,-0.86,-7.18
27.019,3.61,-0.67,-5.57
27.06,3.65,-4.31,-4.59
27.101,7.53,-5.69,-6.63
27.142,5.73,-4.94,-7.22
27.183,5.33,-4,-5.06
27.224,6.43,-2.82,-4.28
27.265,8.24,-3.14,-3.1
27.306,7.65,-2.94,-4.43
27.347,7.02,-4,-5.06
27.388,10.47,-7.92,-4.98
27.429,10.12,-5.92,-12.12
27.47,7.73,-4.59,-11.3
27.511,3.96,-4.51,-11.92
27.552,4,-5.73,-9.06
27.593,5.88,-6.86,-5.69
27.634,5.41,-3.45,-6.86
27.675,5.14,-3.57,-4.43
27.716,5.06,-1.88,-3.14
27.757,3.14,-1.14,-2.43
27.798,4.31,-2.86,-2.08
27.839,7.22,-5.65,-3.88
27.88,7.73,-6.79,-7.73
27.921,7.3,-9.34,-6.04
27.962,8.67,-11.34,-7.41
28.003,7.81,-8.98,-18.59
28.044,2.43,-6.83,-8.55
28.085,2.08,-1.57,-6.39
28.126,3.53,-0.39,-5.33
28.167,3.33,-2.24,-7.81
28.208,8.51,-5.26,-4.2
28.249,7.92,-5.37,-7.61
28.29,5.18,-4.04,-6.59
28.331,6,-2.98,-4.47
28.372,6.51,-2.79,-3.37
28.413,7.57,-2.86,-4.24
28.454,8.28,-4.2,-5.49
28.495,9.85,-5.84,-5.26
28.536,9.85,-6.04,-5.69
28.577,10.28,-3.84,-10.51
28.618,7.92,-4.31,-12.63
28.659,5.45,-6,-12.87
28.7,4.63,-6,-8.63
28.741,4.94,-4.94,-4.86
28.782,5.02,-2.28,-5.65
28.823,5.81,-2.98,-4.63
28.864,6.24,-2,-4.67
28.905,3.45,-2.08,-3.8
28.946,3.37,-3.41,-3.1
28.987,6.08,-5.77,-4.63
29.028,6.98,-7.1,-6.2
29.069,8.79,-7.57,-7.06
29.11,9.18,-9.81,-4.47
29.151,7.34,-8.39,-10.75
29.192,6.24,-8.67,-12.28
29.233,2.39,-3.92,-7.41
29.274,4.31,-0.55,-7.92
29.315,2.51,-2.47,-5.96
29.356,7.1,-4.79,-5.1
29.397,6,-4.39,-8.2
29.438,4.94,-3.77,-6.39
29.479,5.96,-4.47,-5.1
29.52,7.49,-3.61,-4.82
29.561,7.65,-2.75,-4.51
29.602,6.83,-2.79,-4.2
29.643,8.36,-4.24,-4.94
29.684,9.73,-6.39,-5.26
29.725,9.18,-6.75,-5.77
29.766,8.83,-4.28,-10.63
29.807,6.16,-3.3,-13.02
29.848,5.88,-7.26,-10.71
29.889,5.22,-6.43,-8.63
29.93,4.12,-4.35,-5.3
29.971,4.86,-1.45,-6
30.012,7.1,-4.47,-4.39
30.053,5.96,-2.94,-5.73
30.094,2.35,-1.88,-4.04
30.135,3.65,-3.57,-1.26
30.176,5.18,-5.81,-4.2
30.217,7.1,-6.71,-7.02
30.258,8.63,-7.69,-7.41
30.299,8.63,-10.08,-5.1
30.34,7.41,-7.85,-11.85
30.381,4.47,-8.2,-12.4
30.422,3.14,-4.71,-8
30.463,3.73,-0.86,-6.86
30.504,2.63,-1.02,-5.88
30.545,5.69,-4.28,-6.12
30.586,7.22,-5.81,-8.28
30.627,4.98,-4.47,-6.39
30.668,4.59,-3.18,-5.06
30.709,6.94,-3.02,-4.28
30.75,8.08,-2.71,-4.08
30.791,7.65,-3.22,-5.41
30.832,8.94,-5.65,-5.73
30.873,9.06,-6.86,-5.3
30.914,8.59,-6.59,-7.73
30.955,9.41,-4.63,-10.47
30.996,5.57,-2.82,-13.1
31.037,5.49,-5.53,-9.06
31.078,5.69,-5.81,-7.1
31.119,5.14,-3.53,-6.28
31.16,4.47,-1.92,-5.88
31.201,6.35,-3.92,-4
31.242,4.67,-2.28,-5.18
31.283,1.96,-2.63,-3.57
31.324,4.47,-5.18,-4.08
31.365,6.43,-7.37,-6.67
31.406,8.43,-7.18,-6
31.473,7.96,-6.63,-4
31.529,7.53,-9.81,-15.81
31.952,1.37,-7.88,-11.49
32.334,3.84,-2.82,-5.33
32.375,5.73,-3.14,-3.65
32.416,4.16,-2.94,-4.12
32.457,3.02,-3.92,-3.26
32.498,5.18,-5.73,-4.82
32.539,6.08,-6.71,-6.63
32.58,8.71,-7.77,-6.47
32.621,9.73,-7.61,-4.59
32.662,9.45,-7.65,-8.9
32.703,6.51,-8.12,-13.45
32.744,1.33,-4.75,-9.22
32.785,3.8,-2.08,-6.35
32.826,3.22,-1.29,-5.65
32.867,3.88,-4,-6.16
32.908,7.65,-5.73,-7.81
32.949,6.94,-4.67,-6.43
32.99,5.61,-2.63,-5.53
33.031,6.32,-1.92,-3.73
33.072,8.12,-3.18,-3.73
33.113,8.04,-3.88,-4.98
33.154,7.65,-4.82,-5.53
33.195,9.49,-6.98,-4.63
33.236,9.34,-6.47,-8.63
33.277,7.06,-3.77,-12.94
33.318,5.45,-5.88,-12.83
33.359,5.69,-8.36,-9.06
33.4,4.16,-6.2,-6.75
33.441,4.75,-2.2,-6.28
33.482,3.92,-2.39,-4.24
33.523,6.08,-2.59,-4.16
33.564,4.47,-2.24,-4.04
33.605,4.12,-3.22,-2.59
33.646,6.47,-5.02,-3.88
33.687,5.96,-5.37,-6.32
33.728,8.08,-7.45,-7.92
33.769,7.88,-8.83,-5.02
33.81,5.45,-8.43,-5.73
33.851,5.92,-8.2,-13.18
33.892,3.3,-7.37,-13.65
33.933,2.98,-3.69,-8.51
33.974,5.18,-0.04,-7.41
34.015,2.51,-1.96,-3.1
34.056,5.65,-3.69,-6.63
34.097,6.71,-5.02,-7.88
34.138,6.51,-5.14,-5.22
34.179,6.28,-2.63,-5.57
34.22,6.63,-2.59,-3.92
34.261,8.32,-3.26,-4.24
34.302,7.77,-4.08,-5.33
34.343,9.73,-5.88,-4.82
34.384,9.96,-6.28,-6.32
34.425,10,-5.22,-9.57
34.466,7.88,-3.69,-11.61
34.507,4.79,-5.1,-12.24
34.548,5.18,-7.22,-8.75
34.589,4.12,-5.88,-6.43
34.63,4.47,-2.55,-6.24
34.671,6.35,-5.37,-2.47
34.712,6.98,-2.82,-4.16
34.753,3.84,-1.88,-3.61
34.794,3.1,-3.33,-2.31
34.835,6,-5.22,-3.84
34.876,7.18,-6.59,-6.71
34.917,7.65,-8.55,-8.67
34.958,7.69,-10.87,-3.92
34.999,5.3,-8.47,-9.3
35.04,7.14,-8.04,-15.49
35.081,3.53,-5.3,-10.36
35.122,4.12,-0.82,-7.92
35.163,2.51,-0.9,-4
35.204,4.24,-4.04,-5.45
35.245,6.35,-5.37,-8.36
35.286,6.83,-4.47,-8.08
35.327,5.65,-4.16,-5.37
35.368,7.57,-3.41,-4.47
35.409,8.39,-2.79,-3.61
35.45,7.02,-2.79,-4.28
35.491,6.94,-4.86,-4.86
35.532,8.67,-7.49,-4.86
35.573,8.55,-7.06,-9.18
35.614,10.08,-5.1,-12.67
35.655,5.88,-4,-13.18
35.696,3.88,-5.18,-7.69
35.737,4.39,-5.1,-5.49
35.778,6.04,-4.04,-6.83
35.819,7.1,-4.28,-5.73
35.86,6.43,-3.65,-5.77
35.901,3.45,-2.16,-4.28
35.942,2.55,-3.1,-1.8
35.983,4.08,-4.55,-3.65
36.024,5.96,-6.71,-6.43
36.065,5.69,-7.22,-6.71
36.106,8.47,-8.32,-5.73
36.147,8.2,-7.69,-4.71
36.188,8.04,-7.06,-10.55
36.229,5.02,-7.49,-14.91
36.27,2.86,-5.02,-8.28
36.311,4.31,-1.77,-5.65
36.352,2.55,-1.45,-4.47
36.393,3.1,-3.22,-8.32
36.434,9.14,-6.71,-5.61
36.475,6.28,-4.86,-6.79
36.516,5.26,-2.55,-5.18
36.557,6.51,-2.47,-3.45
36.598,8.12,-3.14,-3.92
36.639,7.1,-3.45,-5.37
36.68,8.71,-5.73,-5.61
36.721,10.32,-7.02,-5.69
36.762,9.14,-5.84,-8.87
36.803,9.14,-4.79,-12.2
36.844,6.04,-4.51,-12.08
36.885,3.53,-6.24,-8.12
36.926,3.53,-5.81,-6.24
36.967,5.3,-4.31,-6.71
37.008,7.26,-4.86,-5.1
37.049,7.22,-3.18,-5.88
37.09,3.49,-1.41,-3.88
37.131,3.18,-2.08,-1.22
37.172,5.06,-4.51,-2.86
37.213,8.08,-5.41,-6.67
37.254,8.55,-7.65,-7.22
37.295,8.32,-9.22,-4.59
37.336,6.51,-9.1,-8
37.377,5.92,-8.87,-14.71
37.418,1.73,-7.57,-10.94
37.596,2.63,-2.9,-5.77
37.787,7.22,-3.22,-4.71
37.828,6.63,-4.12,-4.75
37.869,9.18,-6.71,-4.98
37.91,9.45,-6.55,-6.39
37.951,9.81,-4.71,-9.45
37.992,8.08,-4.63,-12.32
38.033,4.63,-4.47,-10.98
38.074,4.67,-4.47,-8
38.115,5.22,-4.86,-5.81
38.156,5.26,-4.04,-7.57
38.197,5.26,-4,-5.81
38.238,4.67,-3.18,-4.24
38.279,2.47,-2.82,-3.18
38.32,4.39,-4.24,-2.75
38.361,6.9,-5.84,-4.47
38.402,7.45,-6.59,-6.39
38.443,8.98,-7.02,-4.94
38.484,8.67,-8,-5.96
38.525,6.83,-7.85,-11.96
38.566,2.79,-7.57,-12.94
38.607,3.92,-4.86,-6.98
38.648,3.22,-1.33,-5.3
38.689,2.47,-1.22,-6.08
38.73,5.84,-4.9,-6.35
38.771,7.77,-5.26,-8.28
38.812,5.41,-4,-6.24
38.853,5.69,-2.86,-5.14
38.894,7.41,-3.1,-2.86
38.935,7.65,-2.75,-4.2
38.976,6.55,-3.49,-4.82
39.017,9.45,-6.9,-5.65
39.058,9.45,-8.08,-6.59
39.099,9.02,-5.3,-12.87
39.14,6.71,-4.24,-13.38
39.181,5.81,-5.49,-9.57
39.222,4.98,-4.9,-8.2
39.263,4.55,-4.28,-5.77
39.304,5.33,-3.02,-6.43
39.345,6.39,-3.84,-5.02
39.386,4.59,-2.43,-5.22
39.427,2.31,-1.73,-3.92
39.468,3.06,-3.8,-1.92
39.509,6.39,-6.16,-4.9
39.55,8.36,-6.75,-7.85
39.591,8.55,-8.12,-6.12
39.632,7.49,-8.59,-2.98
39.673,6.59,-6.9,-9.41
39.714,6.08,-8.47,-16.08
39.755,3.02,-5.77,-11.61
39.796,4.2,-1.1,-6.47
39.837,2.47,-1.37,-4.63
39.878,1.77,-4.55,-7.18
39.919,6.43,-5.57,-7.69
39.96,7.06,-5.73,-7.02
40.001,6.12,-3.3,-5.88
40.042,7.45,-2.47,-3.37
40.083,7.26,-1.53,-3.57
40.124,6.59,-2.24,-4.67
40.165,7.41,-4.28,-6.16
40.206,9.61,-6.98,-5.3
40.247,9.41,-7.45,-5.61
40.288,9.1,-4.86,-11.22
40.329,7.45,-3.3,-13.49
40.37,5.77,-6,-11.73
40.411,4.67,-5.26,-8.71
40.452,4.51,-4.16,-5.96
40.493,5.81,-2.59,-6.55
40.534,5.57,-3.49,-4.75
40.575,4.75,-2.59,-4.75
40.616,3.1,-2.12,-5.14
40.657,3.57,-3.92,-4.08
40.698,4.98,-5.96,-4.24
40.739,5.18,-6.28,-7.18
40.78,6.28,-6.86,-6.43
40.821,9.41,-9.02,-4.63
40.862,7.85,-8.2,-7.26
40.903,6.71,-7.22,-12.16
40.944,3.45,-7.69,-10.4
40.985,2.51,-4.08,-7.34
41.026,3.41,-0.55,-7.26
41.067,2.63,-3.02,-7.26
41.108,6.9,-5.61,-5.69
41.149,6.47,-5.65,-8.16
41.19,5.3,-3.96,-6.43
41.231,5.77,-2.67,-5.81
41.272,7.41,-2.82,-3.84
41.313,7.69,-2.63,-3.92
41.354,7.22,-3.33,-5.22
41.395,8,-5.14,-5.96
41.436,9.65,-6.67,-6.08
41.477,9.02,-6.32,-9.06
41.518,9.45,-4.86,-12.36
41.559,7.18,-5.37,-12.16
41.6,2.63,-5.1,-8.04
41.641,3.96,-4.75,-5.45
41.682,6.94,-4.51,-7.14
41.723,6.2,-4.08,-6.67
41.764,5.3,-3.41,-5.3
41.805,4,-2.16,-5.33
41.846,2.55,-4.12,-3.53
41.887,4.35,-6,-3.26
41.928,5.69,-6.9,-5.22
41.969,7.02,-6.98,-6.51
42.01,8.83,-8.12,-5.53
42.051,7.18,-8,-3.65
42.092,6.47,-7.88,-10.43
42.133,5.96,-9.53,-15.06
42.174,5.41,-5.33,-8.12
42.215,3.18,-0.24,-4.35
42.256,2.35,0.24,-4.51
42.297,3.88,-1.61,-8.83
42.338,10.47,-6.86,-3.49
42.379,6.63,-4.43,-8.47
42.42,4.9,-3.84,-5.41
42.461,5.37,-3.57,-3.84
42.502,6.83,-3.45,-4.04
42.543,6.24,-3.26,-4.39
42.584,7.49,-4.47,-6.59
42.625,9.1,-7.22,-5.57
42.666,7.1,-6.79,-6.63
42.707,9.96,-4.35,-13.3
42.748,12.55,-7.41,-10.16
42.789,5.18,-3.18,-10.59
42.83,1.37,-2.31,-5.3
42.871,4.9,-2.59,-4.2
42.912,6.98,-5.57,-6.55
43.053,6.12,-4.63,-7.22
43.281,5.92,-8.2,-15.97
43.322,3.33,-7.53,-10.83
43.363,2.82,-4.51,-5.84
43.404,3.45,-0.67,-5.61
43.445,2.55,-0.94,-7.96
43.486,6.98,-4.2,-4.86
43.527,9.53,-5.41,-7.06
43.568,5.22,-3.73,-7.26
43.609,4.51,-2.51,-5.33
43.65,6.59,-3.02,-4.08
43.691,7.88,-3.45,-4.71
43.732,7.06,-4.2,-5.84
43.773,8.39,-5.41,-6.59
43.814,9.69,-6.59,-5.3
43.855,8.55,-5.06,-9.1
43.896,10.9,-5.37,-10.87
43.937,6.08,-4.08,-12.55
43.978,2,-4.04,-8.51
44.019,5.14,-5.3,-5.81
44.06,5.77,-5.49,-7.1
44.101,6.24,-4.39,-6.63
44.142,5.41,-2.94,-4.63
44.183,5.41,-1.29,-3.02
44.224,3.65,-2.24,-3.65
44.265,4.16,-4,-4.12
44.306,5.41,-5.65,-4.47
44.347,4.86,-6.2,-6.28
44.388,6.24,-6.9,-5.81
44.429,10.59,-7.88,-6.2
44.47,10.04,-9.22,-6.9
44.511,7.06,-9.22,-11.14
44.552,4.24,-9.49,-14.71
44.593,1.02,-6.39,-8.28
44.634,1.18,-1.77,-6.75
44.675,3.14,-0.9,-8.51
44.716,4.43,-4.47,-8.98
44.757,8.39,-4.67,-4.9
44.798,4.51,-1.65,-7.45
44.839,4.63,-1.45,-7.57
44.88,9.1,-4.67,-5.18
44.921,7.53,-2.98,-6
44.962,5.26,-2.43,-3.73
45.003,5.88,-3.41,-5.26
45.044,7.88,-6.24,-5.84
45.085,8.47,-6.04,-6.28
45.126,7.85,-4.16,-4.08
45.167,8.28,-3.53,-4.2
45.208,8.28,-3.22,-10.12
45.249,9.41,-7.81,-10.24
45.29,2.75,-11.53,-14.87
45.331,-1.37,-15.18,-5.06
45.372,2.43,-7.1,-10.4
45.413,4.47,-1.18,-10.75
45.454,3.69,0.55,-8.32
45.495,13.73,-4.79,-0.67
45.536,3.8,0.16,-4.67
45.577,5.65,-1.53,-2.94
45.618,7.3,-5.18,-1.84
45.659,7.69,-7.02,-4.59
45.7,5.49,-7.37,-5.96
45.741,4.82,-11.49,-4.51
45.782,4.98,-10.83,-5.88
45.823,4.47,-8.39,-4.47
45.864,5.92,-9.26,-8.75
45.905,5.3,-9.77,-16.16
45.946,1.33,-4.67,-15.46
45.987,2,-1.8,-8.2
46.028,1.92,-0.9,-7.14
46.069,3.73,-2.55,-11.26
46.11,6.71,-2.79,-6.79
46.151,7.61,-2.63,-8.08
46.192,8.08,-2.55,-8.12
46.233,9.26,-2.35,-6.04
46.274,7.65,-0.39,-4.67
46.315,8,-1.22,-4.2
46.356,8.24,-2.86,-4.75
46.397,6.59,-3.69,-4.75
46.438,6.83,-5.77,-4.24
46.479,5.92,-5.69,-5.41
46.52,6.63,-4.9,-3.02
46.561,8.9,-3.73,-9.45
46.602,11.3,-3.92,-6.39
46.643,8.79,-9.1,-13.34
46.684,2.98,-7.65,-15.06
46.725,3.69,-12.83,-5.3
46.766,3.33,-6.32,-8.59
46.807,3.45,-2.59,-5.02
46.848,7.53,-4.35,-4.2
46.889,4.79,-1.53,-4.08
46.93,5.02,-1.84,-4.31
46.971,8.08,-4.79,-2.94
47.012,6.04,-5.41,-5.84
47.053,3.92,-6.12,-4.59
47.094,3.14,-6.39,-4.79
47.135,5.1,-7.73,-5.18
47.176,7.06,-7.65,-5.3
47.217,5.45,-6.75,-3.18
47.258,5.41,-6.39,-2.59
47.299,4.82,-8.47,-14.36
47.34,9.77,-12.4,-17.02
47.381,6.55,-6.47,-11.45
47.422,4.59,-1.1,-5.57
47.463,1.8,0.04,-3.49
47.504,2.04,-1.88,-8.51
47.545,6.43,-6.35,-3.18
47.586,6.59,-5.14,-6.35
47.627,3.1,-3.65,-6.59
47.668,6.98,-5.81,-4.16
47.709,8.9,-5.26,-5.02
47.75,6.55,-2.9,-5.06
47.791,5.81,-1.96,-3.57
47.832,7.69,-4.55,-4.98
47.873,8.43,-5.92,-4.98
47.914,8.32,-4.94,-5.61
47.955,10.32,-4.24,-8.55
47.996,9.34,-4.59,-11.49
48.037,6.59,-6.75,-12.04
48.078,5.53,-6.63,-8.39
48.119,5.18,-6.35,-6.16
48.16,5.84,-4.79,-6.08
48.201,5.96,-4.39,-5.33
48.242,5.18,-3.26,-4
48.283,4.28,-1.73,-3.02
48.324,4.51,-3.18,-4.2
48.398,5.96,-6.43,-4.59
48.447,6.16,-7.77,-6
48.488,7.37,-7.34,-4.08
48.602,7.34,-6.9,-3.77
48.775,4.86,-4.39,-7.88
48.816,10.04,-8.71,-4.9
48.857,5.57,-5.41,-6.43
48.898,5.45,-2.98,-4.51
48.939,7.18,-3.37,-3.22
48.98,7.77,-3.57,-3.53
49.021,6.59,-2.63,-5.57
49.062,8.24,-3.02,-4.94
49.103,10.43,-5.45,-4.16
49.144,9.34,-4.98,-11.69
49.185,8.59,-6.12,-12.63
49.226,5.57,-8.24,-11.61
49.267,3.8,-8.24,-7.57
49.308,3.53,-7.1,-4.71
49.349,4.63,-3.69,-5.41
49.39,5.84,-3.14,-4.59
49.431,6.71,-2.82,-3.88
49.472,4.59,-2.39,-3.69
49.513,4.98,-3.18,-2.94
49.554,5.57,-4.67,-4.51
49.595,4.98,-6.08,-5.61
49.636,5.45,-7.14,-6.83
49.677,9.89,-10.87,-4.82
49.718,7.81,-8.12,-9.73
49.759,8.36,-7.49,-15.57
49.8,3.37,-5.81,-11.38
49.841,3.06,-1.8,-6.9
49.882,2.24,-1.53,-5.22
49.923,6.04,-6.12,-7.02
49.964,6.55,-6.24,-7.1
50.005,5.02,-3.65,-5.88
50.046,6.32,-3.18,-4.75
50.087,8.32,-2.79,-4.12
50.128,8.16,-2.31,-3.41
50.169,7.22,-2.86,-4.59
50.21,7.88,-4.51,-5.06
50.251,9.89,-4.71,-2.9
50.292,9.34,-4.43,-6.04
50.333,9.22,-4.94,-10.32
50.374,6.98,-6.04,-14.55
50.415,6.71,-10.12,-11.73
50.456,3.77,-8.08,-8.47
50.497,3.45,-4.04,-6.79
50.538,3.8,-3.61,-4.08
50.579,5.02,-2.39,-3.8
50.62,4.82,-1.53,-3.49
50.661,4.39,-2.04,-3.33
50.702,6,-4.98,-4.04
50.743,6.28,-7.02,-5.18
50.784,4.86,-7.69,-8.55
50.825,6.94,-10.2,-4.67
50.866,7.57,-9.34,-6.2
50.907,7.45,-7.49,-14.47
50.948,5.02,-7.85,-13.85
50.989,3.02,-2.75,-7.49
51.03,2.67,-0.71,-5.18
51.071,2.47,-1.49,-6.24
51.112,7.41,-6.04,-4.98
51.153,8.16,-5.61,-6.75
51.194,5.88,-3.69,-6.12
51.235,6.86,-3.26,-3.61
51.276,7.81,-2.98,-3.3
51.317,7.85,-3.37,-3.92
51.358,6.63,-4.08,-4.98
51.399,7.65,-4.9,-4.63
51.44,9.14,-6.04,-4.75
51.481,9.49,-5.18,-9.81
51.522,6.86,-4.39,-12.47
51.563,5.33,-8.51,-12.28
51.604,5.69,-8.39,-8.43
51.645,4.98,-5.69,-6.63
51.686,4.51,-2.71,-5.1
51.727,5.77,-3.49,-3.77
51.768,6.94,-2.08,-4.55
51.809,5.14,-2.9,-4
51.85,4,-3.02,-4.31
51.891,6.28,-5.69,-3.61
51.932,4.67,-6.47,-6.32
51.973,4.86,-8.67,-8.39
52.014,7.34,-11.45,-3.69
52.055,7.14,-8.24,-8.87
52.096,10.04,-7.73,-15.3
52.137,4.63,-5.26,-10.36
52.178,2.59,-2.04,-7.81
52.219,1.92,-0.9,-5.37
52.26,4.35,-4.28,-7.45
52.301,9.22,-7.88,-5.69
52.342,4.67,-4.79,-6.71
52.383,5.14,-3.18,-5.06
52.424,7.96,-4.04,-4.08
52.465,8.16,-3.02,-4.12
52.506,7.34,-2.59,-3.02
52.547,6.32,-3.92,-5.61
52.588,7.92,-4.9,-4.98
52.629,8.98,-5.14,-3.73
52.67,8.63,-5.41,-7.61
52.711,9.22,-5.41,-11.53
52.752,6.67,-6.83,-13.69
52.793,3.84,-8.94,-10.4
52.834,3.37,-8.67,-6.32
52.875,5.14,-4.16,-7.81
52.916,5.1,-3.53,-3.88
52.957,6.75,-3.02,-4.67
52.998,6.12,-1.22,-3.45
53.039,4.75,-1.33,-3.61
53.08,5.33,-4.24,-3.3
53.121,6.39,-5.96,-4.79
53.162,3.69,-6.79,-7.1
53.203,4.12,-10.28,-7.06
53.244,5.81,-13.45,-8.16
53.285,10.51,-10.79,-17.22
53.326,5.41,-5.18,-9.85
53.367,3.1,-0.31,-7.73
53.408,1.45,-0.47,-3.3
53.449,2.9,-0.67,-7.69
53.49,10.59,-6.16,-2.63
53.531,6.55,-5.18,-7.49
53.572,4.63,-5.49,-4.94
53.613,6.47,-6.43,-4.39
53.654,6.83,-4.59,-3.96
53.695,6.43,-2.82,-3.1
53.736,6.28,-2.43,-4.51
53.777,8.24,-3.92,-5.69
53.972,10.79,-5.92,-5.69
54.154,7.73,-5.3,-12.04
54.269,4.28,-4.59,-3.49
54.31,5.53,-7.1,-4.94
54.351,5.49,-7.37,-8.08
54.392,8.2,-9.22,-5.33
54.433,9.18,-10.94,-5.69
54.474,5.92,-6.39,-14.4
54.515,5.61,-7.65,-14.32
54.556,3.69,-3.88,-7.81
54.597,2.47,-1.02,-3.96
54.638,2.43,-1.88,-7.49
54.679,7.3,-7.34,-6.63
54.72,7.85,-5.84,-6
54.761,5.18,-2.47,-5.69
54.802,6.43,-2.67,-4.39
54.843,8.63,-3.18,-3.18
54.884,7.02,-2.04,-2.63
54.925,6.04,-3.18,-4.39
54.966,7.92,-5.61,-4.67
55.007,9.06,-7.1,-5.41
55.048,9.45,-5.65,-10.94
55.089,8.04,-5.53,-14.16
55.13,4.82,-5.88,-10.28
55.171,5.02,-5.69,-8.12
55.212,7.22,-5.37,-6.12
55.253,5.1,-3.96,-6.59
55.294,3.33,-3.3,-4.82
55.335,3.84,-2.59,-2.79
55.376,4.12,-2.31,-3.18
55.417,4.47,-3.77,-4.35
55.458,5.49,-6.28,-4.51
55.499,4.04,-6.55,-7.22
55.54,5.3,-8.12,-6.75
55.581,8.55,-8.98,-4.59
55.622,9.26,-7.61,-6.67
55.663,9.65,-8.83,-14.55
55.704,1.61,-5.1,-11.1
55.745,2.82,-2.04,-5.18
55.786,2.16,-1.29,-3.92
55.827,2.35,-4,-8.71
55.868,8.28,-8.12,-7.77
55.909,6.08,-6.08,-6.47
55.95,5.1,-2.16,-5.53
55.991,6.2,-1.45,-3.77
56.032,8.51,-3.02,-3.18
56.073,7.73,-2.35,-3.18
56.114,6.04,-3.37,-4.86
56.155,7.69,-5.18,-4.94
56.196,9.18,-5.92,-5.61
56.237,9.41,-5.06,-8.32
56.278,9.18,-5.02,-11.49
56.319,6.55,-6.79,-11.73
56.36,4.86,-7.18,-8
56.401,4.82,-6.28,-5.06
56.442,6,-4.12,-4.79
56.483,6.71,-2.82,-6.16
56.524,7.53,-2.75,-4.9
56.565,3.88,-1.96,-3.84
56.606,3.02,-2.39,-2.63
56.647,5.49,-4.98,-2.79
56.688,6.43,-6.12,-6.28
56.729,6.75,-7.41,-7.22
56.77,7.69,-10.2,-4.86
56.811,7.73,-9.92,-12.75
56.852,7.41,-8.98,-15.77
56.893,3.41,-4.47,-9.41
56.934,3.33,-1.02,-5.92
56.975,2,-0.82,-5.49
57.016,4.63,-2.9,-8.2
57.057,11.81,-7.53,-5.77
57.098,5.53,-4.24,-6.83
57.139,6.04,-3.45,-4.71
57.18,7.92,-3.73,-3.14
57.221,7.61,-2.63,-3.57
57.262,6.94,-2.75,-3.53
57.303,7.06,-4.2,-4.31
57.344,8.67,-5.02,-4.16
57.385,9.06,-4.98,-5.49
57.426,10.2,-5.37,-10.75
57.467,8.12,-6.28,-14.36
57.508,4.63,-7.81,-11.34
57.549,2.9,-6.39,-6.83
57.59,4.94,-4.86,-4.16
57.631,6.71,-3.84,-5.88
57.672,6.63,-3.45,-6.83
57.713,4.59,-1.84,-4.55
57.754,3.33,-2.08,-1.69
57.795,4.35,-3.53,-1.88
57.836,5.53,-5.84,-4.82
57.877,6.71,-6.98,-7.14
57.918,6.51,-8.2,-7.49
57.959,8.08,-11.92,-3.53
58,7.3,-8.28,-14.63
58.041,6.63,-8.43,-12.91
58.082,4,-3.77,-7.85
58.123,3.61,0.24,-5.61
58.164,1.92,-0.78,-4.31
58.205,5.65,-4.39,-5.14
58.246,9.02,-6.43,-8.08
58.287,4.75,-4.94,-4.98
58.328,5.65,-4.16,-4.04
58.369,7.61,-3.88,-4.04
58.41,7.53,-2.67,-3.73
58.451,7.37,-2.82,-3.49
58.492,6.98,-3.84,-4.75
58.533,8.71,-5.3,-3.96
58.574,9.02,-5.1,-5.96
58.615,9.06,-4.39,-11.34
58.656,7.06,-5.69,-13.93
58.697,6.39,-9.14,-12.98
58.738,4.12,-8.12,-8.9
58.779,5.37,-4.16,-6.12
58.82,4.75,-3.18,-4.28
58.861,5.57,-3.73,-4.35
58.902,5.22,-1.8,-3.73
58.943,2.75,-1.8,-2.86
58.984,4.35,-3.37,-3.33
59.025,7.41,-7.34,-4.43
59.066,4.47,-6.51,-7.73
59.107,5.77,-9.89,-5.65
59.148,8.12,-12.32,-6.55
59.189,6.79,-8.79,-14.91
59.23,6.83,-8.67,-12.91
59.271,3.8,-2.24,-8.36
59.342,3.69,0.75,-6.51
59.394,9.45,-6.55,-2.94
59.556,6.71,-5.49,-7.37
59.763,9.26,-5.26,-7.92
59.804,9.06,-4.67,-11.3
59.845,6.12,-6.71,-12.91
59.886,4.9,-8.24,-10.75
59.927,3.77,-6.79,-7.37
59.968,4.63,-4.35,-6.63
60.009,5.33,-4.55,-5.3
60.05,6.35,-3.92,-5.1
60.091,5.37,-2.2,-3.77
60.132,4.86,-2.59,-4
60.173,6.47,-4.59,-4.43
60.214,6.16,-6.16,-4.63
60.255,3.49,-4.98,-7.06
60.296,4.79,-5.45,-5.3
60.337,8.75,-9.49,-8.79
60.378,7.96,-6.79,-15.53
60.419,6.71,-3.96,-9.38
60.46,3.1,-2.98,-6.75
60.501,4.43,-2.63,-5.61
60.542,4.35,-2.67,-8.16
60.583,5.69,-4,-9.53
60.624,6.83,-4.24,-6.39
60.665,4.51,-2.31,-7.77
60.706,5.41,-4.75,-7.73
60.747,6.79,-6.63,-7.81
60.788,5.02,-5.18,-7.73
60.829,4.79,-4.71,-7.02
60.87,6.24,-5.06,-6.98
60.911,5.06,-3.73,-6.55
60.952,5.49,-4.55,-7.37
60.993,6.24,-5.37,-7.06
61.034,5.69,-5.02,-6.39
61.075,5.26,-4.75,-6.67
61.116,6.59,-5.49,-7.49
61.157,5.81,-5.02,-6.9
61.198,5.61,-4.9,-6.39
61.239,5.96,-5.22,-7.1
61.28,5.84,-5.14,-7.1
61.321,5.53,-4.75,-6.86
61.362,5.81,-4.71,-6.39
61.403,5.49,-5.1,-7.1
