NAME:,walk_2_1.csv,,
EXPERIMENT TIME:,05/06/2023 20:27,,
ACTIVITY TYPE:,Walking,,
COUNT OF ACTUAL STEPS:,105,,
,,,
Time [sec],ACC X,ACC Y,ACC Z
0,6.24,-5.49,-5.96
0.041,6.35,-5.26,-6.08
0.082,6.28,-5.26,-5.92
0.123,6.24,-5.3,-5.92
0.164,6.32,-5.37,-6.16
0.205,6.12,-5.41,-6.12
0.246,6.16,-5.41,-6
0.287,6.32,-5.49,-6.04
0.328,6.55,-5.26,-6.28
0.369,6.16,-4.98,-6.2
0.41,5.81,-5.33,-6.16
0.451,6.08,-5.41,-6.04
0.492,6.51,-5.22,-6.55
0.533,6.24,-5.14,-6.51
0.574,5.49,-4.94,-6.16
0.615,5.3,-5.1,-6.08
0.656,6,-5.77,-5.61
0.697,7.06,-5.88,-6.63
0.738,6,-4.55,-6.12
0.779,5.84,-3.96,-5.65
0.82,7.14,-4.2,-5.73
0.861,8.55,-4.59,-5.22
0.902,6.98,-5.65,-5.49
0.943,5.96,-7.02,-6.24
0.984,4.16,-5.45,-5.45
1.025,6.43,-5.26,-6.12
1.066,9.02,-5.61,-5.45
1.107,7.49,-3.8,-4.98
1.148,6,-2.86,-4.04
1.189,5.53,-3.53,-4.71
1.23,7.41,-5.45,-5.73
1.271,8.12,-6,-5.45
1.312,7.45,-4.63,-4.86
1.353,8.16,-4.31,-5.06
1.394,9.92,-4.75,-8.16
1.435,9.3,-7.06,-11.57
1.476,4.35,-8.12,-12.63
1.517,1.18,-7.06,-6.16
1.558,3.3,-4.24,-6.71
1.599,6.32,-3.49,-6.16
1.64,10.63,-5.84,-5.3
1.681,5.96,-1.96,-6.71
1.722,4.35,-1.53,-3.53
1.763,3.18,-3.88,-3.14
1.804,2.43,-4.86,-6.12
1.845,4.39,-8.39,-4.31
1.886,4.39,-7.26,-4.86
1.927,7.3,-7.88,-4.16
1.968,9.57,-9.22,-5.06
2.009,12.32,-12.12,-18.08
2.05,2.47,-6.98,-12.51
2.091,3.69,-3.45,-5.69
2.132,3.37,-0.78,-3.22
2.173,0.43,-2,-4.86
2.214,1.57,-3.65,-9.73
2.255,9.38,-6.63,-1.53
2.296,8.67,-5.96,-9.26
2.337,4.67,-2.59,-5.77
2.378,4.9,-1.57,-3.18
2.419,6.43,-2.71,-3.3
2.46,7.26,-3.65,-3.92
2.501,7.69,-5.41,-5.14
2.542,8.79,-4.94,-4.94
2.583,9.45,-4.55,-4.43
2.624,10.87,-5.14,-9.96
2.665,8.59,-6.67,-13.26
2.706,5.88,-8.51,-12.51
2.747,1.84,-6.63,-6.51
2.788,3.65,-3.65,-5.26
2.829,4.39,-1.65,-6.98
2.87,10.16,-6.75,-3.02
2.911,7.49,-3.02,-6.9
2.952,2.08,-0.31,-4.71
2.993,4.08,-3.45,-0.43
3.034,4.94,-4.04,-2.2
3.075,6.04,-7.22,-6.79
3.116,9.45,-12.28,-8.63
3.157,8.47,-12.55,-6.83
3.198,7.61,-7.88,-16.99
3.239,4.71,-6.55,-10.47
3.28,4.43,-1.57,-7.61
3.321,2.79,-0.16,-4.31
3.362,3.14,-4.28,-4.63
3.403,5.49,-5.1,-6.24
3.444,4.43,-6.32,-6.63
3.485,5.69,-6.39,-5.81
3.526,6.75,-4.86,-4.04
3.567,6.79,-2.47,-3.73
3.608,7.14,-2.9,-4.28
3.649,10.47,-4.24,-4.59
3.69,10.94,-5.77,-5.18
3.731,9.73,-5.06,-10.08
3.772,5.73,-5.61,-13.73
3.813,4.98,-11.22,-13.61
3.854,3.65,-8.67,-7.96
3.895,4.9,-4.59,-5.81
3.936,3.53,-2.75,-4.04
3.977,4.24,-2.47,-3.73
4.018,4.55,-0.27,-3.1
4.059,5.92,-2.75,-2.04
4.1,6.59,-4.79,-4.2
4.141,4.94,-5.65,-5.18
4.182,5.65,-10,-6.9
4.223,7.85,-14.2,-6.83
4.444,5.61,-9.92,-14.16
4.576,3.06,-2.51,-11.26
4.674,8.04,-6.16,-5.1
4.715,8.28,-4.59,-5.88
4.756,9.65,-2.59,-3.14
4.797,9.85,-4.12,-5.22
4.838,9.73,-4.71,-11.02
4.879,5.96,-7.65,-15.53
4.92,3.26,-10.75,-12.75
4.961,1.88,-10.71,-7.49
5.002,3.73,-2.16,-7.85
5.043,2.67,-1.33,-4.75
5.084,6.86,-4.24,-2.75
5.125,6.16,-1.26,-3.73
5.166,4.47,-1.88,-2.08
5.207,7.1,-4.86,-2.63
5.248,6.39,-5.53,-6.32
5.289,5.69,-9.41,-9.3
5.33,6.71,-15.49,-5.65
5.371,4.39,-8.75,-18.79
5.412,4.79,-7.96,-13.73
5.453,3.37,-1.41,-8.12
5.494,2.43,1.1,-5.22
5.535,1.06,-0.16,-4.9
5.576,2.2,-2.82,-6.83
5.617,10.32,-7.14,-4.59
5.658,6.47,-5.92,-6.71
5.699,6.55,-4.35,-4.24
5.74,6.55,-2.71,-3.73
5.781,6.71,-2.28,-3.88
5.822,7.61,-4,-5.1
5.863,9.77,-4.28,-4.2
5.904,10.24,-4.82,-4.86
5.945,9.02,-5.3,-12.16
5.986,6.08,-5.61,-16.2
6.027,5.1,-9.45,-11.89
6.068,3.37,-7.73,-9.14
6.109,4.55,-6.2,-5.77
6.15,4.12,-1.8,-4.75
6.191,4.67,-3.8,-3.02
6.232,3.73,-1.37,-3.45
6.273,2.98,-2.47,-4
6.314,5.06,-4.9,-3.45
6.355,5.96,-7.88,-6.39
6.396,6.24,-8.47,-8.2
6.437,9.1,-10.79,-5.69
6.478,6.71,-9.92,-11.73
6.519,5.73,-8.12,-15.14
6.56,3.14,-4.12,-9.02
6.601,3.61,-0.9,-7.1
6.642,1.92,-0.94,-5.84
6.683,1.53,-3.02,-7.88
6.724,7.22,-5.77,-4.39
6.765,4.82,-4.47,-7.41
6.806,6.51,-4.04,-5.45
6.847,8.51,-3.61,-4.39
6.888,7.26,-1.96,-4.12
6.929,6.51,-1.18,-3.57
6.97,9.3,-4.79,-4.94
7.011,10.63,-5.92,-5.45
7.052,8.04,-5.33,-7.26
7.093,7.88,-4.63,-12.04
7.134,5.06,-6.16,-14.87
7.175,5.02,-10.16,-11.49
7.216,4.67,-7.3,-7.49
7.257,5.61,-3.06,-5.06
7.298,5.18,-1.22,-4.79
7.339,4.71,-1.26,-4.2
7.38,3.37,-0.31,-3.73
7.421,3.8,-3.37,-1.88
7.462,5.57,-5.73,-3.61
7.503,5.1,-7.49,-7.41
7.544,5.84,-10.75,-8.55
7.585,8.24,-13.85,-3.73
7.626,5.1,-7.06,-10.08
7.667,9.26,-8.55,-18.75
7.708,2.71,-3.92,-11.02
7.749,4.04,-1.29,-9.06
7.79,1.88,-2.2,-0.94
7.831,5.37,-4.75,-4.86
7.872,4.28,-3.88,-8.83
7.913,5.73,-5.3,-5.26
7.954,6.9,-4.35,-4.28
7.995,8.2,-4.12,-4.04
8.036,7.69,-2.86,-4.51
8.077,8.36,-4.24,-5.22
8.118,10.9,-5.96,-4.59
8.159,8.63,-5.73,-8.32
8.2,6.16,-4.43,-12.08
8.241,5.22,-8.04,-14.79
8.282,7.34,-10.79,-10.51
8.323,4.75,-5.45,-7.1
8.364,4.16,-2.04,-4.35
8.405,2.59,-1.41,-3.8
8.446,4.59,-0.71,-3.14
8.487,4.2,-1.88,-2.51
8.528,4,-2.98,-3.06
8.569,7.3,-7.53,-6.24
8.61,6.28,-9.53,-8.98
8.651,8.16,-12.55,-4.28
8.692,6.98,-9.81,-12.47
8.733,7.73,-8.71,-18.79
8.774,2.2,-3.8,-10.4
8.815,3.06,-0.71,-5.37
8.856,1.14,-1.69,-3.33
8.897,3.06,-5.18,-5.57
8.938,7.14,-5.02,-7.22
8.979,6,-4.35,-4.98
9.02,6.86,-3.14,-4.31
9.061,8.43,-3.26,-3.84
9.102,7.1,-2.08,-4.67
9.143,7.77,-3.41,-4.79
9.184,11.41,-6.39,-4.51
9.225,8.59,-6.08,-9.14
9.266,6.9,-5.53,-14.04
9.307,5.1,-8,-15.02
9.348,4.31,-9.49,-9.34
9.389,4.63,-5.22,-7.1
9.43,4.75,-1.57,-5.69
9.471,4.51,-1.84,-4.63
9.512,6.12,-1.37,-4.35
9.553,3.41,-0.82,-2.63
9.594,3.41,-2.98,-2.16
9.635,6.71,-6.12,-3.37
9.676,5.45,-6.47,-8.16
9.717,9.34,-11.53,-9.65
9.758,8.79,-14.51,-7.65
9.799,4.55,-8.55,-19.18
10.002,2.47,-6.83,-12.59
10.168,8.2,-2.86,-3.8
10.209,7.18,-2.39,-4.79
10.25,7.69,-4.24,-7.1
10.291,10.83,-5.88,-3.84
10.332,7.92,-4.9,-6.83
10.373,8.51,-5.37,-12.2
10.414,5.26,-5.84,-15.49
10.455,5.22,-9.73,-11.41
10.496,5.57,-8.63,-7.73
10.537,4.71,-2.98,-6.75
10.578,2.35,-1.8,-3.18
10.619,3.49,-1.37,-3.8
10.66,5.57,-0.98,-3.53
10.701,4.35,-2.39,-3.49
10.742,5.77,-5.1,-4.63
10.783,5.45,-7.18,-5.37
10.824,3.92,-7.69,-9.26
10.865,8.63,-13.61,-2.71
10.906,7.53,-8.47,-15.3
10.947,4.47,-7.45,-15.93
10.988,2.39,-2.51,-8.67
11.029,3.53,-0.55,-6.28
11.07,1.84,-1.37,-3.8
11.111,4.55,-3.96,-5.88
11.152,8.16,-5.33,-6.9
11.193,4.63,-3.06,-4.35
11.234,5.49,-2.86,-3.77
11.275,8.04,-3.77,-3.22
11.316,7.45,-3.57,-4.35
11.357,6.63,-4.79,-5.33
11.398,9.77,-6.04,-5.26
11.439,8.55,-5.06,-7.41
11.48,6.35,-4.9,-12.67
11.521,5.18,-6.04,-15.3
11.562,7.73,-10.9,-12.32
11.603,5.92,-8.43,-9.49
11.644,4.98,-2.63,-6.04
11.685,4,0.27,-3.88
11.726,3.3,-0.82,-3.3
11.767,4.2,-0.39,-3.33
11.808,5.06,-3.49,-3.14
11.849,5.84,-5.37,-6.55
11.89,5.92,-8.12,-6.55
11.931,4.59,-9.38,-7.61
11.972,7.14,-12.16,-3.69
12.013,4.98,-8.9,-6.9
12.054,8.04,-8.98,-18.04
12.095,3.65,-5.26,-15.14
12.136,4.79,-2.12,-9.57
12.177,5.02,-1.77,-6.51
12.218,2.59,-3.57,-1.84
12.259,3.45,-3.14,-5.81
12.3,3.3,-3.8,-6.83
12.341,7.53,-6.12,-4
12.382,7.81,-4.55,-5.61
12.423,7.65,-3.41,-5.02
12.464,6.71,-2.47,-4
12.505,9.41,-3.84,-4
12.546,10.04,-4.59,-5.45
12.587,7.96,-4.9,-6.35
12.628,7.26,-3.92,-12.67
12.669,5.33,-6.98,-16.91
12.71,8.83,-14,-13.65
12.751,3.45,-5.53,-7.14
12.792,3.69,-2.35,-4.31
12.833,2.51,-2.28,-1.84
12.874,5.57,-2.31,-2.2
12.915,6.04,-2,-3.18
12.956,4.31,-2.82,-3.06
12.997,7.02,-5.84,-4.24
13.038,5.18,-6.9,-7.57
13.079,5.37,-11.18,-7.1
13.12,5.26,-13.14,-3.77
13.161,3.1,-6.98,-12.83
13.202,8.63,-8.04,-17.22
13.243,5.92,-3.84,-11.69
13.284,5.02,-0.75,-8
13.325,0.9,-2.47,0.59
13.366,3.57,-2.31,-4.55
13.407,4.16,-3.57,-7.18
13.448,6,-6.2,-5.18
13.489,6.98,-4.63,-5.61
13.53,6.51,-3.69,-4.43
13.571,7.26,-3.02,-4.71
13.612,8.79,-4.28,-4.82
13.653,9.49,-4.55,-4.75
13.694,8.63,-5.45,-7.3
13.735,7.45,-4.24,-13.65
13.776,5.88,-6.75,-15.3
13.817,6.94,-10.4,-11.92
13.858,4.79,-5.53,-8.71
13.899,5.26,-2.12,-4.55
13.94,3.8,-2,-3.18
13.981,3.22,-0.51,-2.98
14.022,3.1,-0.43,-3.33
14.063,2.75,-2.63,-4.08
14.104,5.69,-6.39,-3.45
14.145,6.59,-8.16,-8.2
14.186,5.61,-9.61,-10.43
14.227,6.94,-14.24,-3.26
14.268,4.86,-8.71,-12.24
14.309,8.32,-7.88,-15.73
14.35,4.47,-2.31,-10.71
14.391,4.82,-0.55,-7.45
14.432,1.18,-1.61,-0.63
14.473,3.37,-2.39,-4.98
14.514,4.94,-4.08,-6.9
14.555,5.96,-5.57,-5.84
14.596,7.1,-4.71,-4.24
14.637,7.26,-3.3,-4.63
14.678,6.51,-2.51,-3.1
14.719,6.55,-3.1,-5.37
14.76,10.4,-6,-5.61
14.801,9.26,-5.84,-6.79
14.842,7.26,-4.2,-12.36
14.883,5.06,-5.18,-15.18
14.924,7.41,-10.4,-12.98
14.965,6.32,-8.36,-10.4
15.006,5.49,-3.1,-6.39
15.047,2.75,-1.96,-3.02
15.088,2.75,-0.39,-2.16
15.129,4.98,-0.94,-2.47
15.17,4.79,-3.06,-4.31
15.211,4.55,-4.51,-4.55
15.252,6.43,-8.32,-5.45
15.293,3.96,-8.59,-9.02
15.455,7.14,-13.89,-5.37
15.662,4.94,-4.12,-6
15.703,6.08,-4.08,-3.02
15.744,6.67,-3.18,-3.84
15.785,7.53,-3.26,-4.12
15.826,7.45,-3.96,-5.41
15.867,8.32,-3.84,-5.84
15.908,9.49,-5.61,-4.94
15.949,8.08,-5.69,-11.69
15.99,7.14,-4.94,-13.45
16.031,7.88,-8.75,-13.02
16.072,5.61,-7.49,-9.73
16.113,4.08,-4.67,-6.67
16.154,3.8,-2.82,-4.28
16.195,5.57,-3.33,-3.92
16.236,3.22,-1.61,-3.92
16.277,3.26,-2.28,-2.35
16.318,5.61,-4.24,-1.84
16.359,8.39,-6.79,-4.82
16.4,7.22,-7.45,-9.1
16.441,8.47,-13.18,-3.37
16.482,3.92,-8.39,-14.08
16.523,7.81,-8.63,-17.73
16.564,4.63,-3.65,-10.12
16.605,3.96,-0.78,-7.18
16.646,0.78,-0.94,-2.28
16.687,3.88,-4.82,-6.28
16.728,7.37,-5.65,-6.32
16.769,5.96,-4.86,-4.63
16.81,6.16,-3.1,-4.35
16.851,6.71,-2.79,-4.16
16.892,6.98,-2.28,-4.12
16.933,9.3,-4.94,-4.75
16.974,9.57,-4.63,-4.98
17.015,9.89,-5.57,-5.84
17.056,8.55,-4.67,-12.55
17.097,5.37,-4.39,-16.99
17.138,6.32,-11.22,-11.96
17.179,3.53,-7.37,-8.24
17.22,5.1,-2.86,-5.88
17.261,3.77,-1.8,-4.35
17.302,5.41,-3.26,-3.57
17.343,4.43,-1.22,-4.04
17.384,3.45,-2.04,-2.86
17.425,4.67,-4.35,-2.79
17.466,6.51,-7.14,-6.28
17.507,5.14,-8.2,-8.83
17.548,7.81,-12.83,-4.31
17.589,5.61,-10.51,-10.08
17.63,8.47,-8.98,-18.2
17.671,4.55,-7.18,-12.43
17.712,4.24,-0.2,-8.28
17.753,2.28,-0.43,-3.1
17.794,1.14,-0.63,-4.47
17.835,4.28,-4.28,-4.75
17.876,8.12,-6.47,-5.69
17.917,6.32,-5.3,-7.41
17.958,6.35,-4.86,-4.94
17.999,6.28,-3.1,-4.24
18.04,6.12,-2.75,-3.18
18.081,7.88,-3.06,-5.57
18.122,10.59,-5.18,-4.86
18.163,8.67,-4.94,-7.85
18.204,7.34,-3.69,-13.3
18.245,7.34,-9.26,-15.42
18.286,4.67,-10.4,-13.45
18.327,4.04,-7.14,-6.35
18.368,4.67,-1.96,-6.75
18.409,3.77,-2.43,-3.88
18.45,5.61,-2.28,-3.88
18.491,4.55,-0.67,-3.3
18.532,2.86,-2.12,-2.75
18.573,4.86,-4.71,-2.86
18.614,5.22,-7.57,-4.79
18.655,4.51,-8.28,-8.87
18.696,9.26,-12.59,-6.43
18.737,7.92,-10.63,-5.61
18.778,7.88,-7.77,-19.53
18.819,3.65,-7.02,-12.79
18.86,3.69,-2.47,-7.77
18.901,3.77,-1.14,-4.39
18.942,1.14,-0.98,-5.1
18.983,4.98,-4.47,-6.9
19.024,5.26,-5.84,-5.14
19.065,5.53,-3.06,-5.06
19.106,7.53,-3.26,-4.16
19.147,8.28,-2.98,-4
19.188,6.86,-2,-4.43
19.229,8.9,-4.31,-4.9
19.27,10,-5.57,-4.98
19.311,8.36,-5.77,-9.77
19.352,6.75,-4.75,-12.98
19.393,6.32,-9.34,-15.22
19.434,6.08,-10.43,-10.32
19.475,5.02,-5.65,-6.9
19.516,5.49,-1.53,-5.57
19.557,4.08,-1.92,-3.61
19.598,4.12,-0.9,-3.92
19.639,3.53,-2.28,-3.33
19.68,3.33,-3.26,-3.57
19.721,5.73,-6.28,-3.96
19.762,5.61,-8.28,-7.06
19.803,6.98,-11.41,-8.24
19.844,8.51,-13.3,-3.96
19.885,4.79,-6.55,-13.3
19.926,6.47,-6.75,-17.14
19.967,4.28,-3.53,-9.49
20.008,4.43,-1.02,-7.92
20.049,1.33,-2.12,-1.02
20.09,5.73,-4.63,-6.2
20.131,5.61,-4.67,-8.28
20.172,6.24,-3.92,-3.84
20.213,6.16,-2.98,-5.18
20.254,7.06,-3.3,-3.1
20.295,6.32,-2.51,-3.1
20.336,8.39,-5.81,-4.79
20.377,10.04,-6.63,-5.69
20.418,9.45,-4.39,-6.86
20.459,8.12,-3.65,-10.51
20.5,7.06,-7.49,-13.93
20.541,6.71,-10.9,-11.77
20.582,4.35,-5.88,-6.08
20.623,4.55,-2.04,-7.61
20.664,4.24,-3.1,-5.14
20.705,5.88,-2.82,-4.67
20.746,4.16,-1.92,-3.96
20.787,2.12,-2,-2.31
20.828,4.86,-4.98,-2.82
20.869,7.06,-8.04,-7.65
20.997,6.63,-9.18,-8.39
21.156,0.98,-1.53,-0.98
21.197,3.8,-4.04,-4.75
21.238,4.55,-4.31,-8.47
21.279,6.04,-6.43,-5.81
21.32,5.49,-4.82,-4.82
21.361,6.47,-3.37,-4.86
21.402,7.18,-3.02,-4.2
21.443,7.57,-3.22,-4.51
21.484,10.51,-4.24,-4.43
21.525,9.69,-4.59,-5.88
21.566,7.41,-5.41,-12.2
21.607,5.41,-5.65,-16.87
21.648,6.04,-10.79,-11.34
21.689,3.14,-6.94,-7.14
21.73,3.8,-2.24,-5.53
21.771,4.59,-1.88,-3.84
21.812,5.53,-2.51,-3.1
21.853,3.84,-1.1,-4.24
21.894,3.84,-2.98,-3.22
21.935,3.92,-4.67,-3.92
21.976,5.02,-7.77,-5.96
22.017,4.16,-9.1,-8.16
22.058,5.77,-11.38,-8.24
22.099,6,-10.87,-9.92
22.14,9.77,-8.51,-18.32
22.181,4.35,-3.14,-13.45
22.222,4.16,-0.16,-9.65
22.263,1.57,-0.04,-2.39
22.304,1.65,-0.94,-2.82
22.345,5.18,-3.65,-5.96
22.386,6.86,-6.04,-7.53
22.427,6.55,-7.26,-5.14
22.468,5.69,-4.98,-4.43
22.509,5.61,-3.18,-4.24
22.55,6,-3.57,-3.8
22.591,8.67,-4.35,-5.41
22.632,10.59,-5.14,-5.18
22.673,9.06,-4.28,-7.69
22.714,7.73,-3.61,-11.89
22.755,6.12,-6.79,-16
22.796,6.04,-9.57,-12.63
22.837,5.02,-7.77,-7.92
22.878,3.84,-3.8,-5.1
22.919,3.02,-1.41,-4
22.96,4.63,-2.04,-3.77
23.001,5.33,-1.96,-3.88
23.042,3.18,-2.79,-4.28
23.083,4.75,-4.67,-3.02
23.124,5.92,-8.12,-5.18
23.165,4.31,-8.16,-8.59
23.206,7.85,-13.14,-3.41
23.247,5.61,-8.16,-11.18
23.288,8.75,-7.1,-16.32
23.329,4.47,-4.39,-12.43
23.37,5.18,-1.88,-10.2
23.411,2.08,-0.55,-5.06
23.452,2.71,-4.2,-3.06
23.493,2.9,-3.69,-7.81
23.534,4.82,-6.51,-7.96
23.575,7.81,-7.26,-5.45
23.616,7.37,-3.96,-4.82
23.657,7.18,-2.31,-4.28
23.698,6.12,-1.29,-3.77
23.739,9.81,-3.45,-4.12
23.78,11.22,-5.1,-5.84
23.821,8.75,-4.94,-9.49
23.862,7.53,-5.22,-10.94
23.903,5.45,-8.55,-15.97
23.944,3.65,-10.28,-13.14
23.985,4.28,-7.02,-6.39
24.026,4.79,-2.86,-5.26
24.067,4.2,-2.12,-4.24
24.108,4.67,-1.1,-3.18
24.149,4.04,-1.33,-2
24.19,4.31,-2.86,-2.75
24.231,5.53,-5.14,-4.35
24.272,4.75,-8.16,-7.37
24.313,3.69,-10.59,-8.12
24.354,8.59,-13.65,-5.41
24.395,9.22,-8.9,-14.83
24.436,6.43,-8.43,-15.61
24.477,3.73,-2.55,-10.12
24.518,3.14,-0.12,-5.02
24.559,2.04,-1.18,-3.45
24.6,5.3,-5.22,-4.43
24.641,6.9,-5.37,-7.34
24.682,5.06,-5.3,-5.92
24.723,6.16,-4.39,-4.31
24.764,7.26,-3.69,-4.2
24.805,7.3,-2.71,-3.26
24.846,7.02,-3.26,-5.3
24.887,9.26,-5.06,-5.06
24.928,9.1,-6,-4.47
24.969,7.53,-5.14,-9.02
25.01,6.28,-3.8,-14.12
25.051,7.88,-10.71,-14.79
25.092,5.53,-9.61,-9.3
25.133,5.1,-5.37,-6.47
25.174,4.47,-1.77,-4.63
25.215,2.75,-1.06,-3.41
25.256,3.57,-0.63,-3.96
25.297,4.79,-3.3,-3.49
25.338,3.41,-3.22,-3.57
25.379,5.92,-6.9,-4.31
25.42,5.65,-9.1,-6.75
25.461,4.86,-10.59,-9.1
25.502,8,-13.38,-3.57
25.543,5.69,-7.45,-11.96
25.584,6.59,-8.24,-15.02
25.625,5.18,-2.71,-10.87
25.666,4.39,-0.94,-7.85
25.707,0.47,-2,-1.53
25.748,4.31,-4.55,-5.57
25.789,4.39,-5.33,-7.88
25.83,4.75,-5.18,-3.84
25.871,5.88,-3.73,-4.67
25.912,7.34,-3.18,-3.84
25.953,7.85,-2,-3.61
25.994,9.49,-3.02,-5.57
26.035,10.32,-4.16,-5.69
26.076,8.32,-4.31,-8.43
26.117,7.61,-5.14,-12.59
26.158,6.63,-9.3,-16.79
26.199,4.24,-10.12,-12.67
26.43,4.28,-6.51,-5.53
26.65,5.02,-7.61,-11.38
26.691,7.49,-6.67,-16.51
26.732,4.04,-4.04,-11.41
26.773,4.67,-2.28,-8.83
26.814,2.39,-0.9,-2.86
26.855,0.98,-2.31,-4.71
26.896,4.75,-4.47,-8.39
26.937,6.55,-6.12,-4.98
26.978,6.51,-4.12,-5.49
27.019,7.61,-4.16,-4.2
27.06,7.34,-3.1,-4.39
27.101,6.08,-2,-4.67
27.142,11.1,-5.37,-3.88
27.183,9.61,-5.37,-8.51
27.224,8.83,-4.98,-12.67
27.265,6.24,-7.57,-14.91
27.306,3.61,-8.98,-12.94
27.347,3.02,-7.14,-7.34
27.388,4.63,-3.1,-6.67
27.429,5.26,-3.96,-4.59
27.47,5.69,-2.24,-5.57
27.511,3.84,-0.9,-3.92
27.552,2.67,-1.65,-2.12
27.593,4.39,-3.77,-1.65
27.634,5.61,-6.79,-4.9
27.675,7.22,-10.08,-9.77
27.716,7.34,-11.96,-5.57
27.757,5.18,-10.04,-10.47
27.798,7.85,-8.12,-14.32
27.839,5.06,-4.79,-11.34
27.88,3.02,-0.9,-7.02
27.921,1.49,-1.26,-3.69
27.962,5.92,-5.57,-4.43
28.003,5.14,-4.67,-6.98
28.044,3.96,-4.63,-5.45
28.085,5.77,-5.18,-5.1
28.126,7.57,-4.67,-5.02
28.167,7.34,-2.55,-4.28
28.208,5.77,-2.31,-4.04
28.249,7.3,-3.88,-5.77
28.29,11.14,-5.73,-4.82
28.331,9.1,-4.16,-5.18
28.372,7.1,-4.31,-9.92
28.413,7.1,-4.35,-14.75
28.454,10.08,-11.85,-16.12
28.495,4.12,-7.65,-10
28.536,3.45,-5.18,-5.06
28.577,3.26,-1.45,-4.9
28.618,4.31,-2.67,-4.31
28.659,4.59,-2.35,-3.96
28.7,2.16,-1.26,-4.08
28.741,3.33,-3.8,-3.77
28.782,6.86,-7.88,-3.41
28.823,5.06,-8.24,-7.06
28.864,7.1,-9.26,-7.14
28.905,7.45,-9.81,-3.49
28.946,4.98,-7.06,-2.86
28.987,5.57,-8.16,-19.69
29.028,6.83,-9.61,-17.02
29.069,5.02,-4.31,-10.28
29.11,2.12,-0.67,-3.65
29.151,-0.71,2.35,-2.51
29.192,2.51,-2.43,-8
29.233,8.75,-7.88,-3.18
29.274,7.22,-4.35,-6.86
29.315,6.86,-2.35,-4.2
29.356,7.22,-2.08,-3.41
29.397,6.2,-1.45,-3.73
29.438,8.28,-2.98,-5.02
29.479,11.14,-4.67,-4.2
29.52,9.81,-3.73,-5.06
29.561,7.88,-3.57,-10.71
29.602,6.83,-5.73,-17.14
29.643,8.59,-11.65,-14.55
29.684,4,-8.32,-9.85
29.725,3.02,-4.79,-4.04
29.766,1.61,-1.22,-4.28
29.807,2.28,-2.47,-3.53
29.848,7.57,-3.33,-2.71
29.889,3.92,-2.71,-4.51
29.93,6.24,-4.51,-3.33
29.971,5.26,-6.04,-5.14
30.012,5.18,-7.3,-7.77
30.053,8.32,-11.69,-4.51
30.094,3.8,-7.45,-11.1
30.135,10.28,-9.61,-15.22
30.176,3.84,-5.02,-12.4
30.217,3.61,-0.9,-8.12
30.258,3.3,-0.47,-5.61
30.299,4.75,-3.84,-4.71
30.34,8.39,-5.33,-5.61
30.381,4.67,-3.57,-4.51
30.422,5.22,-3.26,-4.08
30.463,7.88,-4.51,-4.24
30.504,7.34,-4.08,-4.63
30.545,4.9,-4,-4.16
30.586,7.06,-4.75,-5.37
30.627,10.67,-6.9,-4.55
30.668,10.08,-5.18,-7.96
30.709,9.1,-3.88,-12.28
30.75,7.1,-5.77,-13.96
30.791,5.26,-7.61,-10.16
30.832,3.53,-5.45,-7.3
30.873,4.39,-4.35,-7.06
30.914,3.96,-4.47,-5.69
30.955,4.59,-3.3,-5.14
30.996,3.33,-2.04,-3.53
31.037,2.86,-2.28,-2.43
31.078,6.75,-5.18,-3.18
31.119,7.85,-6.9,-6.24
31.16,6.04,-7.53,-8.47
31.201,7.88,-12.04,-4.2
31.242,3.41,-8.59,-13.06
31.283,9.89,-9.14,-14.98
31.324,5.73,-2.71,-10.43
31.365,3.3,0.31,-6.67
31.406,2.08,0.2,-4.28
31.447,5.02,-3.73,-3.77
31.488,7.77,-3.92,-5.96
31.529,4.16,-3.37,-5.53
31.57,4.39,-4.71,-4.43
31.611,6.79,-6.12,-4.82
31.668,6.35,-5.1,-4.94
31.734,7.92,-3.84,-4.47
31.775,10.59,-6.08,-4.75
31.964,8.47,-5.37,-11.06
32.103,3.06,-0.63,-3.57
32.144,4.12,-1.84,-3.69
32.185,4.12,-4.12,-4
32.226,6.04,-8.04,-5.53
32.267,4.16,-7.69,-8.63
32.308,4.98,-9.96,-7.02
32.349,8.43,-11.69,-3.84
32.39,6.24,-7.65,-14.67
32.431,5.26,-7.85,-16.63
32.472,3.26,-1.53,-11.34
32.513,4,-0.82,-7.41
32.554,1.53,-2.24,-4.04
32.595,5.84,-5.33,-5.1
32.636,4.75,-5.14,-8.12
32.677,4.82,-4.35,-4.35
32.718,6.32,-4,-4.31
32.759,8.28,-3.88,-4.12
32.8,7.34,-2.82,-4.79
32.841,5.88,-1.92,-3.45
32.882,8.94,-3.96,-4.31
32.923,10.08,-6,-5.14
32.964,7.92,-5.57,-11.92
33.005,5.02,-3.96,-14.67
33.046,7.14,-11.14,-12.83
33.087,4.94,-9.3,-10.28
33.128,4.51,-4.55,-7.06
33.169,4.28,-3.02,-3.22
33.21,4.67,-2.08,-4.75
33.251,4,-1.45,-4.31
33.292,4.04,-1.8,-4.35
33.333,3.8,-3.88,-3.22
33.374,5.22,-6.67,-4.55
33.415,5.61,-8,-8.47
33.456,8.87,-11.92,-5.45
33.497,5.45,-10.16,-3.33
33.538,3.77,-5.77,-13.02
33.579,9.81,-8.63,-17.3
33.62,4.39,-3.1,-11.22
33.661,4,-0.78,-6.71
33.702,1.53,-0.27,-1.84
33.743,6.08,-3.61,-6.16
33.784,7.92,-5.57,-7.14
33.825,4.98,-3.73,-4.24
33.866,5.49,-3.65,-3.65
33.907,6.75,-3.65,-3.65
33.948,6.35,-3.8,-4.31
33.989,8.2,-4.94,-6.43
34.03,10.4,-5.14,-5.61
34.071,9.38,-4.47,-6.86
34.112,9.22,-4.35,-11.49
34.153,6.55,-5.77,-15.53
34.194,6.12,-8.87,-13.65
34.235,5.02,-7.3,-7.92
34.276,4.55,-2.94,-6.04
34.317,2.63,-1.92,-3.73
34.358,3.02,-1.92,-2.75
34.399,3.57,-0.31,-2.79
34.44,5.41,-3.92,-3.57
34.481,6.98,-7.02,-6.12
34.522,4.16,-6.94,-7.3
34.563,4.51,-8.36,-5.92
34.604,6.86,-9.34,-2.55
34.645,6,-8.55,-8.39
34.686,12.12,-10.24,-18.12
34.727,3.26,-4.24,-13.93
34.768,3.61,-1.45,-7.49
34.809,1.92,-1.57,-4.2
34.85,3.49,-3.69,-5.41
34.891,5.69,-4.75,-4.67
34.932,4.86,-4,-4.86
34.973,5.69,-3.53,-5.14
35.014,9.14,-4.59,-4.67
35.055,8.55,-3.18,-3.77
35.096,6.24,-2,-3.3
35.137,5.96,-2.59,-5.33
35.178,9.96,-6.2,-4.39
35.219,8.51,-6.83,-7.61
35.26,8.24,-5.53,-13.96
35.301,6.04,-6.63,-14.36
35.342,5.92,-9.89,-10.32
35.383,3.84,-5.33,-7.37
35.424,5.77,-2.51,-6.32
35.465,5.49,-3.33,-3.96
35.506,5.88,-1.88,-4.82
35.547,3.53,-0.9,-6.08
35.588,2.71,-3.8,-3.84
35.629,3.73,-6.16,-3.73
35.67,4.94,-9.22,-5.84
35.711,5.84,-8.98,-7.06
35.752,7.41,-9.41,-4.39
35.793,9.49,-8.36,-11.38
35.834,5.3,-6.16,-16.67
35.875,3.14,-4.08,-11.61
35.916,3.14,-1.29,-6.28
35.957,2.08,-0.71,-4.86
35.998,2.28,-5.57,-6.16
36.039,7.1,-6.86,-6.63
36.08,5.14,-4.08,-6.24
36.121,5.92,-2.82,-4.12
36.162,6.83,-2.71,-3.53
36.203,7.53,-2.51,-3.92
36.244,7.02,-3.45,-4.31
36.285,7.69,-4.67,-4.67
36.326,9.61,-6.55,-4.39
36.367,9.02,-5.45,-8.9
36.408,6.83,-3.45,-12.87
36.449,7.41,-8.36,-13.49
36.49,6.51,-8.83,-9.96
36.531,4.2,-5.92,-7.14
36.572,3.8,-0.98,-5.14
36.613,4.82,-3.37,-3.49
36.654,5.45,-1.41,-4.82
36.695,3.45,-2.71,-4.63
36.736,3.02,-3.92,-3.02
36.777,5.77,-7.26,-3.37
36.818,4.79,-7.45,-8.43
36.859,7.61,-10.47,-6.32
36.9,8.47,-10.98,-5.22
36.941,6.67,-7.88,-15.69
36.982,6.28,-8.59,-14.98
37.023,3.22,-1.69,-9.73
37.064,3.22,-0.39,-5.84
37.105,3.61,-4.71,-7.37
37.146,5.84,-4.51,-6.55
37.187,5.69,-5.65,-7.57
37.228,7.02,-5.53,-4.63
37.397,7.1,-3.22,-4.39
37.597,6.86,-10.24,-10.16
37.638,5.84,-6.94,-7.92
37.679,5.81,-2.47,-6.08
37.72,3.84,-1.77,-3.69
37.761,4.08,-1.14,-2.67
37.802,4.35,-0.75,-3.26
37.843,3.77,-2.39,-3.61
37.884,6.63,-6.04,-3.92
37.925,5.53,-7.18,-6.55
37.966,5.1,-9.41,-9.73
38.007,8.43,-14,-4.28
38.048,6.63,-8.36,-17.02
38.089,8.75,-9.22,-14.08
38.13,4.04,-1.84,-8.71
38.171,2.79,-0.59,-3.96
38.212,2.39,-2.63,-3.45
38.253,5.22,-3.73,-5.02
38.294,6.24,-5.02,-6.75
38.335,5.14,-6.08,-5.61
38.376,5.3,-5.41,-3.84
38.417,6.2,-3.73,-3.3
38.458,7.02,-3.49,-4
38.499,8.12,-4,-5.49
38.54,10.12,-5.02,-5.02
38.581,9.1,-5.49,-6.35
38.622,8.67,-4.55,-10.87
38.663,5.61,-6.43,-14
38.704,7.65,-10.67,-12.47
38.745,6.12,-8.12,-9.1
38.786,5.69,-3.8,-4.55
38.827,3.33,-1.26,-3.92
38.868,2.79,-0.63,-2.63
38.909,4.55,-1.14,-2.63
38.95,4.63,-2.75,-3.69
38.991,5.37,-5.22,-4.63
39.032,6.12,-7.96,-5.69
39.073,4.24,-9.26,-8.71
39.114,8.55,-14.55,-3.69
39.155,5.57,-8.63,-10.71
39.196,8.51,-9.02,-15.49
39.237,3.57,-2.2,-9.26
39.278,4.82,-0.59,-8.04
39.319,2.94,-1.33,-2.12
39.36,4.51,-3.84,-5.02
39.401,4.24,-4.63,-7.96
39.442,5.3,-7.85,-5.57
39.483,5.65,-6.24,-5.96
39.524,6.47,-4.39,-4.39
39.565,7.34,-2.98,-3.92
39.606,7.37,-1.61,-3.96
39.647,8.36,-2.31,-3.53
39.688,9.14,-4.35,-3.65
39.729,9.18,-6.12,-7.69
39.77,6.98,-4.71,-12.79
39.811,6.67,-8.43,-14.12
39.852,7.85,-10.63,-12.4
39.893,5.22,-7.22,-8.83
39.934,4.75,-3.06,-4.63
39.975,3.69,-1.92,-3.73
40.016,4.24,-1.37,-3.57
40.057,5.1,-2.31,-3.57
40.098,3.06,-2.43,-4.43
40.139,3.37,-3.73,-4.12
40.18,4.39,-7.85,-4.28
40.221,4.35,-8.67,-8.79
40.262,7.88,-12.98,-5.26
40.303,6.43,-8.2,-6.08
40.344,9.92,-8.36,-16.28
40.385,3.96,-8.08,-17.34
40.426,2.35,-1.96,-9.41
40.467,2.12,-0.86,-3.49
40.508,3.22,-3.37,-7.81
40.549,7.45,-6.47,-5.77
40.59,5.61,-5.45,-7.65
40.631,6.75,-5.69,-2.35
40.672,6.67,-3.49,-5.41
40.713,7.34,-3.49,-4.31
40.754,6.43,-3.92,-4.28
40.795,6.75,-4.82,-4.9
40.836,5.69,-4.82,-5.96
40.877,7.81,-5.81,-3.57
40.918,6.39,-4.67,-5.18
40.959,5.57,-3.73,-5.96
41,9.26,-7.37,-8.08
41.041,0.43,-9.34,-16.75
41.082,1.57,-11.73,-8.83
41.123,-0.59,-12.67,-10.2
41.164,3.22,-3.84,-11.81
41.205,4.63,-3.53,-3.65
41.246,9.85,-4.04,-4.98
41.287,4,-2.94,-3.73
41.328,6.24,-4.82,-3.22
41.369,5.3,-6.51,-4.9
41.41,2.2,-6.67,-5.1
41.451,2.71,-8.63,-3.77
41.492,4.67,-10.04,-5.02
41.533,6,-10.71,-6.71
41.574,2.35,-7.85,-9.3
41.615,8.75,-14.44,-11.92
41.656,1.61,-6.39,-10.43
41.697,1.65,-2.55,-8.75
41.738,1.22,-1.1,-9.61
41.779,2.79,-1.65,-12.32
41.82,6.98,-0.63,-4.2
41.861,9.06,-3.65,-8.55
41.902,4.63,-1.65,-9.02
41.943,8.43,-4.71,-6
41.984,7.53,-3.69,-6.43
42.025,7.18,-2.67,-5.3
42.066,7.53,-2.55,-4.08
42.107,8.28,-3.1,-4.59
42.148,8.24,-4.79,-4.71
42.189,7.1,-7.3,-3.92
42.23,5.53,-9.1,-6.59
42.271,7.65,-8.9,-17.18
42.312,9.38,-10.9,-12.71
42.353,3.22,-2.12,-10.24
42.394,1.92,-1.22,-5.33
42.435,4.55,-2.28,-3.22
42.476,5.65,-3.37,-5.77
42.517,6.39,-4.47,-7.37
42.558,5.26,-4.16,-6
42.599,1.53,-4.31,-4.12
42.64,3.14,-5.84,-4.82
42.781,4.94,-6.67,-5.22
42.92,5.88,-4.63,-4.2
43.091,3.14,-1.8,-8.71
43.132,11.92,-7.22,-2.79
43.173,5.61,-4.59,-8.71
43.214,4.55,-2.75,-5.1
43.255,5.33,-3.37,-3.33
43.296,7.92,-5.06,-5.3
43.337,7.96,-4.86,-6.39
43.378,6.9,-5.14,-6.39
43.419,9.73,-7.37,-6.63
43.46,9.34,-6.04,-11.18
43.501,10.94,-6.9,-10
43.542,5.1,-3.88,-12.87
43.583,2.39,-3.41,-8
43.624,6.2,-4.43,-4.24
43.665,5.81,-3.88,-8.12
43.706,4.86,-2.82,-7.02
43.747,3.61,-3.57,-3.57
43.788,2.86,-2.59,-4.79
43.829,2.9,-4.43,-4.55
43.87,3.88,-5.77,-4.28
43.911,5.88,-6.98,-5.37
43.952,7.88,-7.22,-6.35
43.993,9.65,-8.28,-3.96
44.034,9.38,-7.73,-5.18
44.075,5.73,-7.69,-12.24
44.116,2.71,-7.1,-12.87
44.157,3.69,-4.59,-5.53
44.198,2.79,-1.8,-4.28
44.239,1.92,-3.57,-7.02
44.28,6.98,-5.81,-7.77
44.321,7.69,-4.39,-7.02
44.362,5.45,-2.94,-5.65
44.403,5.22,-1.57,-4.39
44.444,7.61,-3.14,-4.16
44.485,8.39,-3.84,-5.22
44.526,6.55,-4.51,-5.88
44.567,7.41,-6.39,-5.65
44.608,8.79,-8.79,-6.16
44.649,8.36,-6.08,-11.61
44.69,7.34,-5.41,-12.4
44.731,5.37,-5.45,-9.77
44.772,4.2,-4.28,-7.37
44.813,5.33,-3.84,-5.26
44.854,5.57,-3.77,-6.67
44.895,5.3,-4.04,-6.08
44.936,4.28,-3.37,-5.57
44.977,2.12,-3.73,-3.73
45.018,3.26,-5.41,-4.12
45.059,4.94,-6.28,-4.98
45.1,6.35,-6.94,-5.61
45.141,8.83,-7.18,-4.82
45.182,8.67,-7.53,-3.84
45.223,6.55,-9.26,-10.71
45.264,3.37,-7.96,-12.59
45.305,2.51,-5.53,-6.43
45.346,3.3,-2,-6.59
45.387,2,-3.18,-6.86
45.428,6.43,-5.18,-5.41
45.469,6.47,-5.57,-7.77
45.51,4.9,-2.9,-5.57
45.551,5.45,-2.08,-4.47
45.592,7.81,-3.45,-4.59
45.633,8.79,-3.77,-5.02
45.674,7.53,-4.04,-5.33
45.715,5.69,-4.67,-5.61
45.756,7.88,-10.51,-6.32
45.797,6.83,-9.61,-13.45
45.838,8.94,-3.84,-12.98
45.879,6.32,-4.71,-10.94
45.92,4.08,-3.77,-7.77
45.961,4.2,-2.63,-5.92
46.002,6.04,-2.9,-6.59
46.043,5.14,-4.28,-5.84
46.084,5.1,-4.55,-5.92
46.125,2.24,-4.16,-4.59
46.166,1.53,-4.55,-4.08
46.207,4.47,-5.77,-4.82
46.248,6.86,-6.67,-5.37
46.289,8.16,-6.98,-5.77
46.33,9.49,-6.9,-3.37
46.371,8.16,-6.98,-4.71
46.412,6.9,-7.53,-14.44
46.453,0.16,-7.57,-15.18
46.494,3.3,-5.14,-5.92
46.535,1.88,-1.53,-3.02
46.576,1.41,-4.08,-7.81
46.617,6.51,-6,-9.41
46.658,6.43,-5.81,-6.43
46.699,5.45,-2.9,-6.39
46.74,5.57,-2.04,-5.69
46.781,7.45,-2.51,-4.24
46.822,8.47,-2.79,-4.67
46.863,7.85,-3.84,-5.61
46.904,7.02,-5.1,-5.92
46.945,7.06,-7.61,-5.18
46.986,6.79,-9.69,-7.69
47.027,8,-4.82,-16.04
47.068,6.98,-6.94,-9.85
47.109,5.84,-4.43,-8.47
47.15,3.37,-2.39,-6.71
47.191,5.1,-1.96,-5.88
47.232,5.1,-3.8,-5.77
47.273,4.43,-4.71,-6.04
47.314,3.84,-4.31,-5.84
47.355,1.84,-5.26,-4.16
47.396,3.77,-6.83,-3.96
47.437,4.98,-6.55,-4.55
47.478,7.22,-6.12,-5.14
47.519,9.77,-5.92,-5.61
47.56,10.2,-7.61,-5.45
47.601,5.49,-8.24,-12.16
47.642,1.8,-8.51,-10.87
47.683,2.98,-5.69,-7.14
47.724,2.86,-1.88,-7.3
47.765,2.51,-2.94,-7.45
47.806,6.08,-5.26,-5.49
47.847,6.32,-4.9,-7.53
47.888,5.06,-3.65,-5.33
47.929,4.82,-2.9,-4.51
47.97,6.47,-3.41,-5.02
48.011,6.79,-4.08,-4.86
48.052,6.16,-4.75,-5.37
48.093,7.34,-6.04,-6.86
48.134,10.04,-7.81,-6.16
48.28,8.71,-6.39,-10.47
48.391,6.04,-5.45,-12.91
48.585,4.98,-5.73,-3.69
48.626,6.79,-7.02,-6.59
48.667,8.04,-8.2,-6.55
48.708,7.88,-9.18,-2.9
48.749,6.35,-8.51,-7.81
48.79,5.14,-8.2,-15.34
48.831,2.67,-7.45,-11.18
48.872,3.26,-2.98,-6.9
48.913,2.04,0.67,-4.35
48.954,2.9,-3.45,-5.84
48.995,7.57,-5.26,-6.43
49.036,5.84,-4.94,-7.73
49.077,4.39,-4.47,-5.69
49.118,4.9,-4.12,-5.06
49.159,7.37,-4.2,-4.2
49.2,7.14,-3.96,-5.45
49.241,7.61,-4.67,-5.92
49.282,9.38,-7.65,-5.73
49.323,8.39,-8.43,-7.22
49.364,8.63,-5.73,-12.28
49.405,6,-3.18,-13.18
49.446,5.65,-6.51,-7.96
49.487,4.12,-4.28,-7.81
49.528,4.82,-4.31,-5.57
49.569,5.1,-3.3,-6.71
49.61,4.39,-3.61,-5.33
49.651,3.45,-2.39,-4.59
49.692,1.84,-3.33,-2.75
49.733,4.79,-5.69,-4
49.774,7.88,-7.37,-5.96
49.815,7.92,-8.43,-7.81
49.856,5.61,-9.22,-3.88
49.897,5.69,-9.06,-5.57
49.938,6.28,-8.36,-18.08
49.979,4.43,-5.22,-13.06
50.02,3.69,-1.41,-7.34
50.061,2,-0.31,-1.37
50.102,2.55,-2.28,-3.53
50.143,6.12,-3.69,-7.61
50.184,8.87,-6.24,-7.53
50.225,5.53,-4.31,-5.37
50.266,5.37,-2.94,-5.18
50.307,6.79,-3.57,-3.8
50.348,7.61,-4.55,-5.02
50.389,6.98,-4.98,-6.59
50.43,7.81,-7.53,-6
50.471,7.26,-7.02,-9.96
50.512,9.69,-4.55,-12.28
50.553,8.16,-4.9,-12.12
50.594,3.45,-2.67,-9.61
50.635,3.41,-2.71,-7.1
50.676,6.16,-4,-6.55
50.717,5.96,-5.18,-8.24
50.758,4.08,-4.59,-5.77
50.799,3.3,-2.75,-5.96
50.84,2.28,-3.49,-3.06
50.881,4.2,-4.98,-4.28
50.922,6,-6.16,-5.1
50.963,7.53,-6.55,-6.2
51.004,8.04,-7.53,-4.86
51.045,8.39,-8.83,-8.87
51.086,6.9,-8.51,-13.81
51.127,2.71,-6.86,-6.98
51.168,2.31,-2.2,-7.1
51.209,2.43,-2,-8.12
51.25,5.14,-3.26,-7.85
51.291,8.98,-5.57,-3.3
51.332,5.45,-3.14,-7.3
51.373,4.79,-2.55,-5.96
51.414,5.69,-3.45,-4.67
51.455,6.16,-4.04,-5.49
51.496,6.83,-4.55,-5.37
51.537,7.02,-4.75,-6.2
51.578,7.37,-5.02,-7.26
51.619,9.3,-6.98,-6
51.66,8.47,-6.67,-8.63
51.701,9.14,-4.67,-12.47
51.742,7.37,-5.1,-11.34
51.783,2,-4.2,-8.98
51.824,3.14,-3.84,-6.79
51.865,5.33,-4.86,-6.32
51.906,4.98,-4.12,-6.79
51.947,4.31,-3.73,-5.77
51.988,4.28,-3.1,-4.35
52.029,3.53,-3.69,-3.49
52.07,4.71,-4.94,-3.77
52.111,7.57,-6.83,-4.63
52.152,7.73,-6.67,-7.18
52.193,8.12,-8.39,-4.71
52.234,8.39,-10.51,-7.22
52.275,5.18,-7.85,-13.53
52.316,3.02,-5.45,-7.41
52.357,3.18,-2.04,-6.86
52.398,4.08,-1.49,-7.69
52.439,4.9,-4.31,-5.37
52.48,6.51,-5.3,-7.37
52.521,4.04,-4.39,-6.39
52.562,3.45,-4.39,-5.61
52.603,6.39,-4.71,-6.12
52.644,8.51,-4.59,-5.14
52.685,8.39,-3.69,-5.41
52.726,6.08,-2.86,-4.9
52.767,6.86,-4.51,-5.02
52.808,9.06,-7.92,-6.55
52.849,8.9,-7.49,-12.32
52.89,8.43,-5.53,-10.9
52.931,4.98,-4.16,-11.69
52.972,2.39,-4.35,-8.87
53.013,5.06,-4.16,-6.47
53.054,5.84,-4.51,-6.2
53.095,4.39,-3.45,-6.08
53.136,3.77,-3.06,-4.79
53.177,3.57,-3.84,-3.61
53.218,2.43,-4.31,-4.16
53.259,4.55,-5.88,-4.2
53.3,7.26,-7.49,-6.12
53.341,8.08,-7.77,-7.81
53.382,8.47,-8.55,-3.02
53.423,6,-7.73,-7.92
53.464,3.96,-8.2,-15.26
53.505,2.9,-7.1,-11.53
53.546,4.12,-3.73,-7.14
53.587,3.96,-0.16,-6.2
53.628,1.69,-3.69,-5.73
53.669,6.59,-5.14,-6.39
53.872,6.55,-5.61,-6.98
54.079,7.45,-5.33,-13.38
54.12,4.82,-4.12,-8.67
54.161,3.8,-3.18,-6.39
54.202,4.35,-3.45,-4.55
54.243,4.04,-3.14,-6.94
54.284,4.08,-4.08,-5.41
54.325,4.59,-4.08,-4.75
54.366,2,-4.04,-3.92
54.407,4.08,-6.08,-4
54.448,8.24,-7.37,-5.57
54.489,9.73,-6.71,-7.02
54.53,8.2,-8.47,-3.3
54.571,6.16,-8.24,-10.36
54.612,1.96,-8.63,-17.61
54.653,4.28,-6.2,-7.73
54.694,3.14,-1.84,-4.51
54.735,1.61,-0.08,-5.02
54.776,2.71,-2.94,-9.18
54.817,9.26,-6.2,-3.73
54.858,6.16,-4.86,-7.65
54.899,3.96,-3.26,-6.24
54.94,6.75,-4.43,-3.84
54.981,8.98,-4,-4.28
55.022,7.92,-3.26,-6.43
55.063,7.41,-4.9,-4.59
55.104,7.18,-7.45,-4.98
55.145,6.63,-6.08,-14.08
55.186,9.22,-8.32,-11.57
55.227,4.86,-4.28,-12.79
55.268,5.57,-2.67,-8
55.309,7.18,-3.06,-5.37
55.35,3.8,-1.84,-6.71
55.391,2.35,-2.24,-4.55
55.432,2.12,-2.55,-4.39
55.473,3.57,-5.18,-4.86
55.514,4.16,-5.41,-5.84
55.555,6.32,-7.3,-4.39
55.596,6.47,-6.35,-6.51
55.637,6.43,-6.12,-6.16
55.678,8.2,-10.36,-5.02
55.719,5.33,-8.47,-16.24
55.76,3.45,-7.22,-11.3
55.801,3.1,-3.02,-6.43
55.842,2.82,0.27,-6.04
55.883,2.43,-3.14,-5.88
55.924,8.94,-6.28,-4.71
55.965,5.06,-3.3,-6.63
56.006,4.31,-3.49,-4.55
56.047,6.47,-3.53,-5.92
56.088,8.24,-4.98,-5.45
56.129,8.24,-4.71,-5.81
56.17,6.04,-3.3,-4.94
56.211,5.96,-5.14,-5.37
56.252,8.16,-7.77,-6.24
56.293,7.85,-6.28,-11.69
56.334,9.81,-4.67,-13.73
56.375,7.18,-5.22,-13.34
56.416,2.98,-3.18,-9.41
56.457,3.49,-2.47,-5.81
56.498,4.94,-4.28,-6.55
56.539,4.79,-4.31,-6.79
56.58,6.2,-3.73,-5.18
56.621,3.26,-2.94,-4.31
56.662,2.31,-3.26,-2.75
56.703,4.55,-5.33,-4.98
56.744,7.57,-7.85,-7.88
56.785,7.14,-7.61,-6.94
56.826,6,-7.45,-3.18
56.867,4.59,-7.88,-3.53
56.908,4.71,-7.57,-12.04
56.949,5.77,-7.57,-17.69
56.99,6.2,-4.79,-9.18
57.031,3.65,-0.39,-5.26
57.072,1.92,0.12,-3.69
57.113,2.51,-1.8,-8.98
57.154,7.88,-5.73,-6.12
57.195,7.77,-5.53,-7.06
57.236,4.94,-3.57,-5.96
57.277,6.08,-2.9,-4.12
57.318,7.41,-3.69,-4.47
57.359,8.04,-5.33,-5.96
57.4,7.61,-6.2,-6.32
57.441,8.12,-7.88,-4.75
57.482,7.18,-5.69,-12.12
57.523,7.26,-2.24,-13.73
57.564,8.71,-7.14,-10.51
57.605,4.08,-4.16,-9.34
57.646,5.41,-3.18,-6.08
57.687,5.1,-2.63,-6.12
57.728,3.73,-3.41,-5.69
57.769,5.02,-3.18,-6.39
57.81,1.65,-3.41,-5.45
57.851,1.8,-4.71,-4.71
57.892,4.12,-7.45,-5.26
57.933,6.16,-7.57,-7.18
57.974,8.79,-6.51,-6.12
58.015,8.63,-6.55,-3.8
58.056,5.06,-6.35,-7.96
58.097,3.33,-7.69,-17.18
58.138,3.3,-9.18,-13.85
58.179,3.73,-4.67,-7.14
58.22,2.75,-0.16,-4.86
58.261,1.33,-0.94,-6.35
58.302,3.3,-3.88,-10.4
58.343,10.24,-7.85,-3.02
58.384,5.37,-4.63,-8.67
58.425,4.47,-1.96,-6.86
58.466,6.98,-3.06,-4.39
58.507,8.51,-3.49,-4.71
58.548,6.71,-3.06,-5.61
58.589,7.06,-5.06,-5.88
58.63,8.16,-7.41,-6.24
58.671,7.41,-6.9,-5.92
58.712,7.57,-5.1,-9.38
58.753,8.9,-4.08,-11.85
58.794,6.28,-4.2,-11.49
58.835,4,-4.31,-7.81
58.876,4.94,-4.86,-6.35
58.917,6.47,-4.67,-6.86
58.958,6.04,-3.96,-6.51
58.999,4.08,-2.94,-5.53
59.04,3.45,-2.75,-4.28
59.17,2.51,-4.59,-4.63
59.245,9.26,-6.51,-3.57
59.585,9.85,-7.22,-3.84
60.077,3.22,-4.16,-7.1
60.118,4.43,-4.98,-6.2
60.159,5.81,-5.3,-7.06
60.2,5.33,-4.55,-6.9
60.241,4.98,-2.94,-5.61
60.282,3.45,-3.49,-2.63
60.323,3.33,-4.55,-3.96
60.364,6.35,-7.37,-4.82
60.405,6.71,-6.98,-6.94
60.446,8.04,-7.85,-5.92
60.487,7.88,-9.18,-3.37
60.528,5.45,-7.88,-8.08
60.569,5.3,-7.1,-14.47
60.61,4.51,-6.43,-8.94
60.651,3.41,-1.33,-6.59
60.692,2.08,-0.94,-4.98
60.733,5.02,-3.77,-6.55
60.774,7.92,-6.24,-7.3
60.815,5.69,-4.82,-7.18
60.856,4.86,-4.12,-6.12
60.897,6.86,-4.12,-5.45
60.938,7.37,-3.92,-4.86
60.979,6.43,-4.28,-4.39
61.02,6.59,-5.49,-5.73
61.061,6.51,-6.75,-5.57
61.102,5.84,-6.47,-9.18
61.143,5.45,-2.75,-16.04
61.184,6.67,-9.77,-9.77
61.225,5.02,-4.31,-10.08
61.266,1.77,-1.29,-7.88
61.307,2.9,-1.57,-4.82
61.348,4.04,-4.67,-6.94
61.389,6.12,-6.75,-8.43
61.43,4.86,-4.86,-7.14
61.471,4.59,-4.31,-6.51
61.512,4.82,-4.35,-7.02
61.553,5.57,-4.9,-7.14
61.594,4.67,-5.02,-6.55
61.635,3.57,-4.63,-5.81
61.676,3.88,-4.86,-6.28
61.717,5.65,-5.57,-9.61
61.758,7.02,-6.47,-9.18
61.799,6.2,-4.94,-8.2
61.84,5.49,-3.61,-7.14
61.881,5.41,-3.22,-5.61
61.922,6.12,-3.18,-6.94
61.963,7.06,-5.22,-7.85
62.004,6.32,-5.1,-7.1
62.045,5.3,-3.84,-6.43
62.086,6.16,-4.31,-6.86
62.127,7.06,-5.02,-7.14
62.168,6.32,-4.55,-7.14
62.209,5.61,-4.43,-6.75
62.25,5.69,-4.82,-7.02
62.291,6.12,-5.14,-6.79
62.332,5.96,-4.94,-6.71
62.373,5.53,-4.47,-6.83
