NAME:,Walk_4_1,,
EXPERIMENT TIME:,06/06/2023 12:06,,
ACTIVITY TYPE:,Walking,,
COUNT OF ACTUAL STEPS:,106,,
,,,
Time [sec],ACC X,ACC Y,ACC Z
0,5.61,-9.73,-9.34
0.814014648,-1.1,-8.12,-3.14
0.895014648,0.43,-8.16,-4.63
1.786014648,2.12,-5.45,-3.45
1.867014648,-3.61,-7.02,-3.45
2.758014648,2.47,-8.47,-5.41
3.811014648,-0.78,-8.98,-4.28
3.892014648,0.78,-11.73,-3.3
3.973014648,4.43,-9.81,-10.36
4.054014648,-5.18,-7.41,-5.92
4.135014648,4.31,-9.34,-5.37
4.216014648,-4.2,-6.04,-3.88
4.297014648,-1.84,-6.51,-3.45
4.378014648,-0.71,-9.41,-3.77
4.459014648,-0.39,-12.98,-3.41
4.702014648,-6,-9.57,-5.81
4.784014648,2.98,-5.92,-3.1
4.864014648,0.43,-9.14,-3.88
5.188014648,-7.06,-6.12,-6.98
5.269014648,4.94,-8.51,-5.33
5.350014648,-2.08,-4.51,-2.63
5.431014648,-2.39,-9.02,-4.16
5.512014648,1.73,-7.85,-2.63
5.593014648,-1.26,-13.69,-4.51
5.674014648,-4.79,-9.41,-10.24
5.755014648,4.35,-5.26,-6.28
5.998014648,1.06,-9.77,-5.22
6.079014648,-0.67,-8.55,-3.88
6.160014648,2.43,-11.26,-3.49
6.241014648,1.33,-8.55,-7.06
6.322014648,-3.88,-6,-9.92
6.403014648,2.51,-6.98,-7.57
6.484014648,-0.71,-2.79,-3.1
6.565014648,-3.14,-9.45,-4.67
6.646014648,0.47,-7.45,-2.63
6.727014648,-0.51,-13.85,-3.49
6.808014648,-0.94,-8.67,-6.43
6.889014648,2.98,-9.06,-9.02
6.970014648,-5.41,-8.2,-5.92
7.051014648,0.86,-2.43,-2.51
7.375014648,3.73,-8.9,-10.36
7.456014648,-5.57,-6.63,-7.1
7.537014648,4.63,-9.02,-4.67
7.618014648,-1.29,-3.37,-2.86
7.699014648,-2.2,-9.89,-4.86
7.780014648,0.59,-7.69,-2.59
7.861014648,-1.84,-14.32,-2.71
7.942014648,-3.65,-9.77,-8.39
8.023014648,3.84,-6.67,-7.1
8.104014648,-4.2,-7.92,-6.59
8.185014648,1.06,-4.04,-3.18
8.266014648,1.1,-10.36,-4.9
8.347014648,-0.2,-8.39,-3.65
8.428014648,0.51,-9.3,-4.16
8.509014648,2.63,-10.55,-6.9
8.590014648,0.43,-5.02,-10.2
9.724014648,1.96,-7.1,-10.51
9.805014648,-2.55,-11.96,-6.67
9.886014648,2.31,-5.1,-3.22
10.77701465,0.82,-12.55,-3.49
10.85801465,3.69,-7.92,-10.28
11.83001465,-0.12,-9.92,-4.2
12.39701465,0.08,-10.55,-3.8
12.47801465,-1.49,-12.87,-2.28
12.55901465,-2.16,-8.55,-10.43
12.64001465,2.82,-7.61,-5.22
12.72101465,-4.9,-8.2,-6.39
12.80201465,2.82,-5.92,-3.18
13.04501465,0.94,-12.67,-4.16
13.12701465,2.24,-8.04,-8.67
13.45001465,-2.63,-9.3,-5.06
13.53101465,-0.78,-8.08,-2.86
13.61201465,-2.2,-12.59,-3.69
13.69301465,-2.51,-9.57,-7.26
13.77401465,2.79,-5.73,-8.51
13.85501465,-3.57,-6.98,-5.92
13.93601465,0,-3.53,-3.33
14.01701465,1.06,-9.96,-4.59
14.09801465,0.39,-7.61,-3.1
14.17901465,0.51,-10.47,-4.71
14.26001465,0.98,-11.53,-6.67
14.34101465,0.67,-4.94,-10.71
14.42201465,-1.26,-9.96,-6.47
14.50301465,1.29,-3.61,-3.77
14.58401465,-4,-10.12,-4.71
14.66501465,-0.94,-7.34,-1.92
14.74601465,-0.16,-11.38,-3.57
14.82701465,-2.98,-12.51,-6.28
14.90801465,0.51,-3.73,-10.32
14.98901465,-2,-7.77,-5.18
15.07001465,-2.39,-4.51,-4.08
15.15101465,2.28,-8.98,-4.39
15.23201465,1.1,-7.65,-3.61
15.31301465,-0.39,-9.57,-4.59
15.39401465,0.04,-12.32,-4.55
15.47501465,1.92,-7.22,-10.9
15.55601465,-1.22,-9.06,-7.57
15.63701465,0.98,-5.02,-4.82
15.71801465,-3.02,-8.2,-4.39
15.79901465,-1.33,-7.41,-2.67
15.88001465,-0.04,-11.41,-4.55
15.96101465,-2.59,-11.85,-9.89
16.04201465,2.35,-3.65,-7.37
16.12301465,-4.12,-7.77,-4.86
16.44701465,0.98,-9.77,-4.2
16.52801465,0.67,-10.12,-4.63
16.60901465,1.65,-7.53,-12.16
16.69001465,-1.14,-9.14,-6.59
16.77101465,1.29,-4.47,-4.08
16.85201465,-3.37,-8.59,-4.39
16.93301465,-0.94,-6.94,-2.55
17.01401465,-1.49,-12.12,-3.73
17.09501465,-2.59,-10.63,-5.02
17.17601465,-1.49,-6.12,-11.06
17.74301465,1.96,-6.9,-10.9
17.82401465,-1.84,-9.65,-6.86
19.20101465,-2,-7.53,-3.14
19.28201465,0.98,-9.26,-4.47
19.36301465,-1.53,-13.69,-2.35
20.33501465,-2.12,-7.53,-4.2
20.41601465,1.26,-9.49,-4.04
20.74001465,-6,-9.02,-6.28
20.82101465,2.39,-4.43,-2.71
20.90201465,0.75,-9.57,-4.39
20.98301465,-1.06,-8.79,-3.45
21.06401465,1.53,-12.71,-3.61
21.14501465,1.84,-8.43,-8.04
21.22601465,-5.02,-5.06,-7.77
21.30701465,4.31,-8.43,-7.06
21.38801465,-2.43,-3.14,-2.86
21.46901465,-2.63,-8.28,-4.24
21.55001465,0.24,-8.51,-3.88
21.63101465,-2.28,-13.45,-2.55
21.71201465,-3.22,-9.61,-8.87
21.79301465,4.08,-7.77,-6.67
21.87401465,-4.86,-8.32,-5.26
21.95501465,2.51,-4.98,-2.35
22.03601465,0.63,-9.85,-4.35
22.11701465,-0.59,-8.67,-3.1
22.19801465,2.51,-10.32,-3.65
22.27901465,2,-10.79,-7.18
22.36001465,-6,-5.33,-9.18
22.44101465,3.18,-8.39,-6.08
22.52201465,-1.69,-3.33,-2.9
22.60301465,-1.92,-8.94,-5.14
22.68401465,-0.55,-7.57,-3.18
22.76501465,-2.67,-13.49,-3.22
22.84701465,-4.2,-10.32,-10.16
22.92701465,3.26,-4.43,-5.81
23.00801465,-6.98,-10.08,-5.96
23.08901465,2.43,-4.71,-2.55
23.17001465,1.29,-9.34,-5.18
23.25101465,-0.59,-8.16,-3.3
23.33201465,1.29,-10.51,-4.82
23.41301465,2.47,-9.61,-6.47
23.49401465,0.43,-6.51,-11.1
23.57501465,-0.27,-8.71,-6.12
23.65601465,0.86,-3.8,-5.02
23.73701465,-3.65,-9.22,-5.1
23.81801465,-1.18,-6.32,-3.06
23.89901465,-1.18,-11.18,-5.1
23.98001465,-2,-10.9,-4.71
24.06101465,-1.96,-6.24,-11.38
24.14201465,-0.16,-5.92,-5.3
24.22301465,-2.55,-6.55,-5.06
24.30401465,2,-7.85,-4.24
24.38501465,0.9,-7.3,-3.57
24.46601465,0.71,-9.85,-4.63
24.54701465,0.08,-13.85,-2.67
24.62801465,2.59,-8.9,-8.79
24.71001465,-5.1,-9.38,-6.39
24.79001465,4.31,-8.04,-4.08
24.87201465,-3.92,-7.3,-2.98
24.95201465,-1.1,-7.49,-3.49
25.03301465,1.26,-9.53,-3.06
25.11501465,-2.51,-14.59,-3.41
25.19501465,-2.51,-9.06,-9.26
25.27701465,3.96,-5.96,-5.77
25.35701465,-5.81,-9.81,-6.16
25.43801465,2.39,-4.39,-3.65
25.52001465,1.26,-9.61,-5.18
25.60001465,-1.22,-8.16,-3.57
25.68201465,1.22,-11.3,-4.59
25.76201465,3.02,-8.83,-6.51
25.84301465,-0.59,-5.96,-11.49
25.92501465,0.71,-7.61,-7.18
26.81501465,-0.27,-10.67,-4.59
26.89601465,2.75,-12.36,-1.88
27.70601465,-6.12,-8.59,-6.28
27.78701465,2.24,-4.12,-2.79
29.32601465,2.67,-10.24,-9.81
29.40701465,-4.55,-7.02,-4.39
29.48801465,3.45,-10.04,-4.9
29.56901465,-3.61,-6.94,-3.06
29.65001465,-1.65,-7.49,-2.98
29.73101465,0.51,-9.45,-3.69
29.81201465,-1.77,-14,-2.67
29.89301465,-1.73,-8.36,-9.85
29.97401465,2.86,-6,-4.79
30.05501465,-3.22,-10.36,-6.12
30.13601465,1.65,-5.18,-2.98
30.21701465,1.14,-9.38,-4.47
30.29801465,-0.78,-9.22,-3.65
30.37901465,2.39,-11.69,-2.98
30.46001465,3.57,-8.98,-9.1
30.54101465,-6.83,-6.04,-5.77
30.62201465,3.92,-9.14,-6.08
30.70301465,-1.77,-4.08,-3.14
30.78401465,-1.8,-7.73,-4.39
30.86501465,0.27,-8.43,-4.47
30.94601465,-3.14,-13.18,-2.59
31.02701465,-2.75,-10.16,-9.3
31.10801465,5.14,-5.49,-5.53
31.18901465,-5.33,-9.73,-5.92
31.27001465,2.04,-5.22,-3.3
31.35101465,0.35,-9.02,-4.43
31.43201465,0.24,-9.89,-3.18
31.51301465,2.51,-10.32,-2.86
31.59401465,3.06,-9.85,-8.55
31.67501465,-6,-5.45,-8.04
31.75601465,2.35,-7.41,-6.2
31.83701465,-0.55,-3.3,-3.02
31.91801465,-2.59,-9.73,-4.86
31.99901465,-0.39,-7.61,-2.67
32.08001465,-1.77,-12.24,-3.02
32.16101465,-4.12,-12.36,-11.69
32.24201465,3.84,-3.22,-4.47
32.32301465,-3.8,-9.53,-5.73
32.40401465,-0.08,-3.22,-3.49
32.48501465,1.73,-9.34,-4.86
32.56601465,0.08,-9.45,-3.02
32.64701465,1.18,-9.89,-2.98
32.72801465,2.12,-11.06,-10.12
32.80901465,-8.63,-5.53,-7.69
32.89001465,4.39,-7.18,-6.08
32.97101465,-2.04,-4.08,-2.82
33.05201465,-1.45,-7.69,-4.08
33.13301465,-0.35,-9.02,-3.77
33.21401465,-2.2,-12.79,-1.92
33.29501465,-1.96,-12.87,-12.28
33.37601465,4.08,-5.26,-5.18
33.45701465,-6.28,-8.04,-6.04
33.53801465,3.45,-5.61,-3.33
33.61901465,1.18,-7.61,-4.16
33.70001465,-0.35,-9.1,-3.53
33.78101465,1.61,-12.75,-2.98
33.86201465,2.28,-8.16,-8.94
33.94301465,-8.47,-7.06,-8.55
34.02401465,7.53,-8.39,-4.28
34.10501465,-3.65,-4.86,-1.84
34.18601465,-1.18,-8.32,-4.08
34.26701465,0.71,-9.38,-4.24
35.23901465,-3.1,-4.71,-2.75
35.32001465,-0.82,-7.65,-3.92
35.40101465,-0.63,-10.4,-5.1
35.48201465,-2.94,-13.85,-3.65
35.56301465,-2.67,-7.49,-8.83
35.64401465,3.49,-8.12,-4.98
35.72501465,-5.26,-10.08,-6.2
35.80601465,1.61,-3.41,-3.18
35.88701465,1.45,-8.04,-5.37
35.96801465,0.55,-9.53,-3.84
36.04901465,-1.26,-13.45,-3.45
36.13001465,4.43,-10.79,-10.36
36.21101465,-5.73,-4.94,-5.06
36.29201465,4.12,-9.53,-4.86
36.37301465,-1.33,-4.55,-3.06
36.45401465,-2.59,-8.47,-4.04
36.53501465,0.98,-7.81,-3.84
36.61601465,-2.24,-14.71,-3.26
36.69701465,-3.22,-5.37,-9.1
36.77801465,4.28,-9.1,-5.84
36.85901465,-4.82,-9.61,-5.53
36.94001465,2.2,-4.79,-2.59
37.02101465,1.29,-8.71,-4.2
37.10201465,0.16,-9.69,-3.37
37.18301465,1.69,-13.3,-2.59
37.26401465,2,-7.57,-10.2
37.34501465,-5.02,-9.53,-7.06
37.42601465,5.06,-6.75,-4.47
37.50701465,-3.65,-5.77,-3.14
37.58801465,-1.88,-7.37,-3.45
37.66901465,0.24,-8.39,-4.75
37.75001465,-0.55,-12.4,-3.37
37.83101465,-3.33,-8.55,-12.43
37.91201465,1.37,-5.45,-5.77
37.99301465,-3.49,-7.3,-5.65
38.07401465,3.33,-7.53,-3.37
38.15501465,1.18,-7.57,-4
38.23601465,-0.67,-10,-4.24
38.31701465,0.71,-12.59,-2.79
38.39801465,2.86,-9.1,-9.81
38.47901465,-5.61,-6.47,-6.75
38.56001465,4.86,-8.71,-5.18
38.64101465,-2.86,-5.14,-2.63
38.72201465,-1.65,-8,-4.12
38.80301465,0.08,-8.87,-3.61
38.88401465,-2.31,-12.55,-2.63
38.96501465,-4.39,-8.94,-8.75
39.04601465,4.47,-7.14,-7.22
39.12701465,-4.39,-7.22,-5.33
39.20801465,1.45,-4.9,-2.86
39.28901465,1.18,-9.96,-4.35
39.37001465,-0.75,-8.32,-3.06
39.45101465,0.9,-11.3,-3.65
39.53201465,2.16,-10.55,-6.71
39.61301465,-1.02,-5.14,-9.49
39.69401465,1.02,-10.28,-8.16
39.77501465,0.94,-0.78,-2.9
39.85601465,-2.63,-9.49,-4.94
39.93701465,-0.94,-8.28,-2.82
40.01801465,-1.84,-11.38,-3.18
40.09901465,-2.47,-11.3,-8.47
40.18001465,3.92,-6.59,-8.39
41.15201465,-2.47,-12.28,-2.71
41.23301465,-3.33,-10.36,-7.92
41.31401465,5.02,-7.45,-7.53
42.12601465,-1.18,-7.73,-4
42.20701465,-0.27,-9.3,-3.57
42.28801465,-4.63,-12.55,-2.67
43.17901465,-4.31,-4.2,-3.22
43.26001465,-1.88,-7.69,-2.79
43.34101465,0.35,-9.22,-4.35
43.66501465,-0.59,-7.57,-5.02
43.74601465,0.82,-8.43,-4.24
43.82701465,1.26,-6.79,-2.67
43.90801465,1.1,-11.34,-3.84
43.98901465,1.41,-9.53,-7.77
44.07001465,-2.04,-8.04,-10.98
44.15101465,1.29,-7.1,-6.08
44.23201465,0.47,-2.55,-2.98
44.31301465,-4.31,-10.43,-4.35
44.39401465,0,-7.1,-3.02
44.47501465,-1.69,-14.63,-2.28
44.55601465,-2.75,-9.81,-7.77
44.63701465,4.71,-7.1,-6.79
44.71801465,-6.08,-7.73,-5.73
44.79901465,2.43,-4.82,-2.9
44.88001465,0.59,-7.88,-3.92
44.96101465,0.51,-9.61,-3.73
45.04201465,0.31,-11.81,-2.12
45.12301465,4.82,-6.67,-11.06
45.20401465,-4.35,-10.32,-7.81
45.28501465,5.1,-6.28,-4.16
45.36601465,-3.84,-4.82,-2.94
45.44701465,-1.96,-8.08,-3.14
45.52801465,-0.82,-10.12,-3.41
45.60901465,-3.1,-10.36,-5.61
45.69001465,-0.24,-8.36,-12.71
45.77101465,-2.43,-5.61,-5.18
45.85201465,-0.31,-4.59,-4.12
45.93301465,1.57,-9.1,-3.84
46.01401465,1.29,-8.43,-3.06
46.09501465,1.57,-11.02,-3.14
46.17601465,0.98,-11.92,-8.67
46.25701465,-3.8,-6.35,-8.59
46.33801465,2.24,-7.1,-6.47
46.41901465,-0.78,-3.84,-2.82
46.50001465,-2.28,-8.63,-4.2
46.58101465,-0.43,-8.28,-3.41
46.66201465,-1.96,-13.61,-1.92
46.74301465,-3.57,-7.85,-9.53
46.82401465,4.9,-10.12,-7.41
46.90501465,-5.45,-8,-4.59
46.98601465,1.96,-5.49,-2.31
47.06701465,1.65,-8.63,-3.84
47.14801465,0.08,-10.55,-3.73
47.22901465,1.8,-11.96,-1.53
47.31001465,3.61,-7.57,-10.71
47.39101465,-4.86,-10.79,-7.45
47.47201465,3.61,-6.9,-4.43
47.55301465,-3.49,-6.08,-3.3
47.63401465,-1.65,-7.92,-3.3
47.71501465,-0.27,-10.32,-4.2
47.79601465,-2.55,-10.67,-4.55
47.87701465,-0.78,-7.37,-12.08
47.95801465,-0.98,-6,-5.61
48.03901465,-1.41,-5.45,-4.59
48.12001465,1.37,-8.79,-3.96
48.20101465,1.33,-7.3,-2.86
48.28201465,-1.02,-10.79,-4.75
48.36301465,1.06,-11.77,-4.94
48.44401465,1.37,-7.57,-10.94
48.52501465,-0.82,-9.02,-7.18
48.60601465,0.2,-4.75,-3.96
48.68701465,-3.73,-8.55,-4.16
48.76801465,-1.02,-8.32,-2.43
48.84901465,-2.2,-12.28,-2.55
48.93001465,-3.1,-9.3,-8.98
49.01101465,5.49,-8.63,-9.73
49.82101465,-1.61,-7.53,-2.82
49.90201465,-0.12,-9.73,-4.67
49.98301465,-0.63,-12.08,-2.71
50.06401465,-2.82,-7.14,-12.04
50.14501465,1.33,-7.06,-7.53
50.22601465,-3.3,-7.1,-4.35
50.30701465,2.28,-7.06,-3.37
50.38801465,1.8,-8.28,-4
50.46901465,-1.02,-10.71,-3.8
50.55001465,1.14,-12.55,-1.88
50.63101465,3.45,-7.37,-11.38
50.71201465,-3.06,-11.18,-7.61
50.79301465,1.1,-5.77,-3.69
50.87401465,-2.94,-7.18,-3.96
50.95501465,-1.96,-6.86,-2.71
51.03601465,-0.71,-11.85,-3.53
51.11701465,-2.31,-10.08,-7.81
51.19801465,2.35,-7.22,-9.45
51.27901465,-3.18,-5.37,-4.63
51.36001465,0.71,-5.49,-3.77
51.44101465,0.08,-9.14,-4.39
51.52201465,0.43,-7.85,-2.67
51.60301465,1.18,-10.36,-2.71
51.68401465,1.92,-10.94,-7.65
51.76501465,-5.02,-8.75,-10.36
51.84601465,2,-5.45,-5.33
51.92701465,-1.18,-4.51,-3.33
52.00801465,-2.35,-9.38,-4.43
52.08901465,0,-7.81,-3.1
52.17001465,-1.18,-14.12,-2.59
52.25101465,-3.77,-7.61,-10.36
52.33201465,4.2,-8.83,-7.53
52.41301465,-6.67,-7.49,-5.3
52.49401465,2.79,-4.71,-2.28
52.57501465,2.2,-9.57,-4.28
52.65601465,-0.63,-9.34,-3.73
52.73701465,0.98,-12.63,-2.94
52.81801465,4.47,-7.81,-11.89
52.89901465,-3.57,-9.85,-7.18
52.98001465,3.06,-5.02,-4.31
53.06101465,-3.8,-7.26,-3.53
53.14201465,-1.73,-7.06,-2.47
53.22301465,-0.98,-10.63,-4.28
53.30401465,-0.04,-11.65,-3.06
53.38501465,-4.98,-8.79,-14
53.46601465,0.24,-6.12,-4.63
53.54701465,-2.67,-6.59,-4.86
53.62801465,1.73,-8.08,-3.49
53.70901465,2,-7.85,-3.02
53.79001465,0.67,-10.94,-3.77
53.87101465,0.2,-11.18,-4.67
53.95201465,1.1,-9.92,-10.28
54.03301465,1.26,-8.16,-6.75
54.11401465,-0.39,-5.77,-3.57
54.19501465,-2.82,-7.92,-4.31
54.27601465,-0.55,-7.53,-2.04
54.35701465,-2.28,-12.75,-3.02
54.43801465,-1.84,-8.43,-6.94
54.51901465,5.81,-10.08,-12.47
54.60001465,-6.59,-4.43,-4.94
54.68101465,2.35,-4.08,-2.51
54.76201465,1.61,-10,-4.04
54.84301465,-0.31,-7.77,-2.31
55.65301465,3.69,-8.75,-6.79
55.73401465,-4.98,-8.51,-5.1
55.81501465,2.35,-5.45,-2.51
55.89601465,1.22,-8.36,-3.65
55.97701465,-0.39,-10.71,-3.49
56.05801465,1.88,-11.92,-1.53
56.13901465,3.3,-7.73,-9.69
56.22001465,-6.08,-10.63,-8.24
56.30101465,5.02,-5.61,-4.39
56.38201465,-2.55,-4.75,-2.28
56.46301465,-2.71,-8.9,-3.88
56.54401465,0.67,-8.51,-3.14
56.62501465,-1.18,-13.57,-2
56.70601465,-2.31,-6.04,-10.79
56.78701465,1.92,-10.12,-8.75
56.86801465,-5.1,-7.37,-4.9
56.94901465,2.43,-5.33,-1.92
57.03001465,1.92,-8.24,-3.41
57.11101465,-1.1,-9.14,-4.35
57.19201465,0.55,-15.14,-2.24
57.27301465,2.94,-7.81,-11.57
57.35401465,-2.55,-11.38,-8.94
57.43501465,2.59,-6.04,-3.73
57.51601465,-2.98,-6.16,-2.98
57.59801465,-2.28,-8.51,-3.33
57.67801465,0.55,-10.04,-3.69
57.75901465,-2.51,-10.36,-5.41
57.84001465,-0.08,-8.9,-12.91
57.92101465,-1.49,-4.98,-5.1
58.00201465,-3.18,-5.14,-5.22
58.08301465,1.8,-8.94,-3.77
58.16401465,1.8,-7.92,-2.39
58.24501465,0.94,-10,-3.77
58.32601465,0.27,-12.67,-8.16
58.40701465,-4.9,-6.32,-8.67
58.48801465,1.92,-7.02,-5.57
58.56901465,-0.94,-3.3,-3.26
58.65001465,-2.55,-8.79,-4.04
58.73101465,-0.24,-8.39,-2.2
58.81201465,-2.9,-12.43,-2.39
58.89301465,-3.02,-9.06,-8.2
58.97501465,5.65,-9.92,-7.57
59.05501465,-7.49,-8.55,-5.26
59.13601465,2.47,-4.75,-2
59.21701465,1.22,-9.34,-3.84
59.29801465,-0.16,-8.94,-3.57
59.38001465,3.22,-10.71,-2.24
59.46001465,2.75,-9.65,-9.73
59.54101465,-7.57,-8.75,-8.08
59.62301465,4,-7.92,-5.26
59.70301465,-1.22,-2.79,-2.67
59.78401465,-2.59,-9.41,-4
59.86501465,0.43,-7.53,-3.18
59.94601465,-2.67,-11.81,-3.73
60.02701465,-2,-9.38,-6.12
60.10801465,1.77,-6.9,-10.08
60.18901465,-3.02,-6.86,-5.77
60.27001465,-0.31,-3.53,-3.77
60.35101465,1.33,-10.04,-4.59
60.43201465,0.39,-7.37,-3.33
