NAME:,Walk_2_1,,
EXPERIMENT TIME:,06/06/2023 12:02,,
ACTIVITY TYPE:,Walking,,
COUNT OF ACTUAL STEPS:,95,,
,,,
Time [sec],ACC X,ACC Y,ACC Z
0,0.82,-7.34,-3.77
0.082008301,-1.02,-12.67,-3.02
0.162008301,-2,-8.32,-6.71
0.243008301,5.37,-9.77,-10.28
0.325008301,-3.77,-4.71,-5.49
0.405008301,1.65,-4.31,-3.37
0.487008301,1.22,-10.04,-4.28
0.567008301,0.16,-8.28,-2.24
0.648008301,1.37,-10.83,-3.88
0.730008301,1.22,-10.51,-4.55
0.810008301,1.92,-5.53,-10.16
0.892008301,-1.92,-10.87,-6.86
0.972008301,0.86,-5.06,-3.8
1.053008301,-3.96,-8.67,-4.51
1.134008301,-1.45,-7.96,-2.28
1.215008301,-0.94,-11.18,-2.79
1.296008301,-0.86,-12.71,-1.77
1.377008301,-2.35,-3.84,-7.61
1.458008301,3.06,-10.2,-8.32
1.539008301,-4.24,-9.57,-5.37
1.620008301,1.26,-4.67,-2.2
1.701008301,1.14,-9.89,-4.67
1.782008301,-0.24,-10.43,-3.37
1.863008301,0.63,-11.41,-2.86
2.106008301,2.47,-8.55,-6.9
2.187008301,-1.33,-3.3,-2.9
2.268008301,-2.2,-9.57,-4.98
2.349008301,0.55,-6.28,-4.16
2.431008301,-2.82,-10.67,-3.77
2.511008301,-1.49,-10.08,-2.39
2.592008301,-3.49,-9.45,-11.96
2.673008301,0.2,-6.43,-5.37
2.754008301,-2.08,-5.73,-4.82
2.835008301,1.57,-9.57,-3.49
2.916008301,0.75,-7.3,-2.67
2.997008301,0.43,-10.79,-3.88
3.078008301,0.94,-11.89,-4.39
3.159008301,1.84,-8.39,-11.89
3.240008301,-3.1,-8,-5.41
4.050008301,1.61,-8,-4.39
4.131008301,-0.67,-9.96,-3.49
4.213008301,1.26,-11.53,-3.65
4.293008301,-0.04,-8.9,-6.12
4.374008301,-1.77,-7.81,-10.9
4.455008301,0.55,-7.1,-7.02
4.536008301,0.94,-3.57,-4.31
4.617008301,-2.71,-8.43,-4.86
4.698008301,-0.82,-7.81,-2.86
4.779008301,-1.29,-11.06,-2.98
4.860008301,-3.18,-10.55,-4.43
4.941008301,-2.2,-7.73,-10.71
5.022008301,-0.94,-7.45,-5.33
5.427008301,-0.47,-10.94,-2.75
5.508008301,2.75,-9.85,-11.45
5.589008301,0.08,-8.08,-6.43
5.913008301,-2.63,-12.16,-2.94
5.994008301,-2.98,-9.02,-6.55
6.075008301,2.9,-9.18,-10.63
6.156008301,-3.8,-6.59,-4.43
6.237008301,-0.67,-4.94,-3.57
6.318008301,1.06,-9.26,-4.08
6.399008301,-0.24,-7.53,-2.9
6.480008301,2.04,-10.87,-4.16
6.561008301,0.43,-10.98,-4.43
6.642008301,-0.67,-10.55,-11.18
6.723008301,-1.8,-6.39,-6.75
6.804008301,0.75,-6.04,-4.39
6.885008301,-2.55,-7.53,-4.04
6.966008301,-0.43,-7.96,-2.79
7.047008301,-1.84,-10.9,-4.51
7.128008301,-3.73,-9.18,-6.12
7.209008301,-1.73,-7.06,-12.91
7.290008301,-0.71,-5.88,-5.14
7.371008301,-1.96,-5.22,-4.67
7.452008301,2.12,-9.81,-4
7.533008301,0.55,-7.77,-2.31
7.614008301,1.96,-10.79,-3.69
7.695008301,-0.12,-10.67,-6.35
7.776008301,-2.63,-8.59,-9.18
7.857008301,2.16,-8.39,-7.1
7.938008301,-0.16,-3.61,-3.41
8.019008301,-2.47,-8.67,-4.47
8.100008301,-0.67,-7.34,-2.51
8.181008301,-3.33,-11.85,-3.53
8.262008301,-1.45,-10.4,-6.08
8.343008301,0.82,-8.36,-9.73
8.424008301,-1.88,-5.02,-4.98
8.505008301,-1.69,-5.61,-4.43
8.586008301,1.49,-8.98,-3.92
8.667008301,0.63,-7.61,-2.75
8.748008301,0.47,-10,-4.08
8.829008301,0.71,-11.57,-4.98
8.910008301,0.63,-6.24,-11.26
8.991008301,-0.35,-9.22,-8.39
9.072008301,0.08,-5.1,-4.08
9.153008301,-3.14,-7.53,-4.39
9.801008301,0.94,-7.57,-3.02
9.882008301,0.86,-10.32,-4.39
9.963008301,1.14,-12.12,-1.92
10.7730083,-3.1,-8.87,-5.41
10.8540083,2.12,-7.22,-2.82
10.9350083,0.94,-8.08,-3.84
11.8260083,3.61,-7.3,-8
11.9070083,-5.73,-9.61,-5.14
11.9880083,1.8,-5.33,-2.2
12.7980083,-1.22,-12.36,-2.39
12.8790083,-2.63,-8.63,-9.06
12.9610083,4.75,-9.14,-7.96
13.0410083,-6.51,-8.55,-5.81
13.1230083,2.12,-5.45,-2.86
13.2030083,1.84,-8.94,-4.24
13.2840083,-0.86,-10.12,-2.82
13.3650083,0.75,-10.79,-3.26
13.4460083,1.14,-8.98,-5.18
13.5270083,-0.39,-8.39,-9.1
13.6080083,1.18,-9.06,-6.79
13.6890083,0.55,-4.08,-3.84
13.7700083,-3.49,-8.71,-4.75
13.8510083,-0.31,-7.34,-2.79
13.9330083,-1.14,-10.9,-4
14.0130083,-2.63,-10.83,-3.73
14.0940083,-2.39,-7.34,-10.24
14.1750083,-0.63,-5.92,-6.12
14.2560083,-2.94,-7.65,-5.22
14.3380083,1.92,-8.39,-3.41
14.4180083,1.29,-7.57,-3.49
14.4990083,-0.78,-10.24,-3.84
14.5800083,0.9,-12.24,-1.84
14.6610083,2.59,-9.26,-8.04
14.7430083,-6.55,-8.71,-6.86
14.8230083,3.8,-8.43,-4.63
14.9040083,-2.71,-6.67,-2.75
14.9860083,-1.57,-8.12,-3.41
15.0660083,1.06,-9.53,-3.18
15.1480083,-1.92,-12.08,-2.2
15.2290083,-3.96,-7.88,-8.75
15.3100083,5.22,-9.65,-7.34
15.3910083,-6,-9.22,-5.33
15.4710083,1.96,-5.14,-2.28
15.5530083,0.98,-9.3,-4
15.7950083,1.49,-10.04,-9.18
15.8770083,-6.28,-6.86,-6.98
15.9580083,3.26,-7.57,-5.57
16.0380083,-1.73,-5.37,-3.22
16.1190083,-1.84,-8.63,-4.24
16.2000083,0.31,-8.9,-3.14
16.2810083,-1.92,-11.65,-3.02
16.3630083,-2.24,-10,-6.94
16.4430083,2.35,-7.14,-8.2
16.5240083,-2.98,-6.59,-4.98
16.6050083,-0.24,-5.49,-4.31
16.6860083,1.29,-9.65,-3.88
16.7680083,0.27,-7.65,-2.63
16.8480083,0.98,-9.77,-4.08
16.9290083,0.43,-12.16,-2.82
17.0100083,1.8,-6.51,-10.47
17.0910083,-1.57,-10.16,-7.69
17.1730083,2.98,-6.08,-4
17.2530083,-3.53,-7.34,-3.49
17.3340083,-1.8,-8.43,-2.43
17.4150083,-1.49,-10,-2.82
17.4960083,-2.51,-12.67,-4.75
17.5780083,-1.02,-6.9,-11.92
17.6580083,-2.67,-5.33,-5.1
17.7390083,-0.75,-5.73,-5.81
17.8200083,1.18,-8.2,-3.69
18.0630083,-0.67,-12.83,-2.67
18.1440083,0.04,-6.08,-10.4
18.7920083,3.3,-4.75,-8.51
18.8730083,-4.59,-8.87,-5.49
18.9540083,1.96,-6.12,-2.39
19.0360083,1.69,-8.39,-3.84
19.1160083,-0.71,-11.73,-4.12
19.1970083,0.04,-12.16,-1.88
19.2780083,3.84,-8.55,-9.69
19.3590083,-3.1,-9.41,-6.83
19.4410083,2.86,-8.36,-4.71
19.5210083,-3.37,-6.39,-2.71
19.6020083,-2.2,-8,-3.1
19.6830083,-0.08,-9.1,-3.49
19.7640083,-0.16,-12.63,-2.16
19.8450083,-3.49,-7.22,-11.92
19.9260083,1.57,-7.49,-7.57
20.0070083,-5.02,-7.92,-4.9
20.0880083,2.31,-6.2,-2.71
20.1690083,1.73,-9.53,-3.53
20.2500083,-0.78,-10.67,-3.57
20.3310083,0.16,-12.2,-3.61
20.4120083,1.73,-6.55,-10.59
20.4930083,-1.41,-8.75,-7.1
20.5740083,1.37,-6.32,-4.24
20.6550083,-3.61,-7.65,-3.96
20.7360083,-1.77,-7.88,-2.31
20.8170083,-0.82,-10.63,-3.69
20.8980083,-2.12,-11.06,-5.53
20.9790083,0.27,-8,-11.02
21.0600083,-2.47,-6.16,-4.98
21.1410083,-0.71,-5.41,-4.43
21.2220083,1.49,-9.22,-3.45
21.3030083,0.82,-8.32,-2.55
21.3840083,-0.08,-10.24,-3.41
21.4650083,0.59,-12.36,-6.71
21.5460083,-0.86,-7.53,-9.69
21.6270083,0.63,-8.47,-6.75
21.7080083,1.96,-4.04,-3.84
21.7890083,-4.04,-9.53,-4.04
21.8700083,-1.02,-7.37,-1.49
21.9510083,-1.41,-11.65,-3.26
22.0320083,-2.08,-10.75,-6.67
22.1130083,3.61,-8.24,-9.18
22.1940083,-4.16,-4.86,-4.71
22.2750083,1.22,-5.81,-3.53
22.3560083,1.45,-9.49,-3.77
22.4370083,-0.04,-9.18,-2.75
22.5180083,1.88,-10.32,-2.79
22.5990083,0.82,-10.98,-7.18
22.6800083,-5.1,-7.92,-8.51
22.7610083,2.9,-7.02,-6.71
22.8420083,-1.26,-3.41,-3.41
22.9230083,-3.1,-8.9,-4.31
23.0040083,-0.71,-8.87,-2.59
23.0850083,-1.1,-13.69,-2.31
23.1660083,-3.22,-8.59,-7.73
23.2470083,4.55,-11.06,-7.69
23.3280083,-6.32,-7.73,-5.3
23.4090083,2.35,-4.31,-2.47
23.4900083,1.69,-9.53,-3.53
23.5710083,-0.59,-9.26,-2.98
23.6520083,1.1,-11.92,-2.47
23.7330083,3.06,-8.67,-8.79
23.8140083,-6.12,-7.77,-8.2
23.8960083,5.73,-8.98,-4.59
23.9760083,-3.73,-4.12,-2.2
24.7860083,3.57,-11.22,-1.77
24.8670083,0.98,-8.36,-9.57
26.2440083,0.16,-4.39,-3.33
26.3250083,-2.55,-9.1,-4.08
26.4060083,0,-8.51,-2.39
27.3020083,4.47,-7.49,-4.75
27.3830083,-2.39,-6.08,-2.86
27.4640083,-1.88,-8.32,-3.96
27.5450083,0.35,-9.06,-3.65
27.6260083,-0.51,-12.47,-2.31
27.7070083,-2.71,-8.67,-10.2
27.7880083,4.31,-7.3,-6.43
27.8690083,-4.98,-9.45,-5.26
27.9500083,2.2,-5.92,-3.02
28.0310083,1.37,-8.71,-3.65
28.1120083,-0.86,-9.92,-2.86
28.1930083,1.69,-11.14,-1.73
28.2740083,2.2,-9.89,-9.14
28.3550083,-6.47,-7.96,-7.14
28.4360083,3.37,-8.28,-4.71
28.5170083,-1.18,-4.28,-2.67
28.5980083,-2.43,-9.14,-4.08
28.6790083,0.2,-8.59,-2.67
28.7600083,-2.12,-12.32,-2
28.8410083,-4.16,-9.14,-8.04
28.9220083,6.08,-10.28,-7.26
29.0030083,-5.49,-7.57,-4.31
29.0840083,2.08,-5.73,-2.43
29.1650083,1.1,-9.14,-3.1
29.2460083,0.08,-10.32,-3.26
29.3270083,3.49,-10.75,-2.08
29.4080083,1.69,-9.57,-10.04
29.4890083,-4.08,-8.04,-5.81
29.5700083,2.2,-8.43,-5.06
29.6510083,-2.51,-7.49,-3.37
29.7320083,-1.49,-7.49,-2.79
29.8130083,0,-9.49,-4.28
29.8940083,-1.22,-12.08,-2
29.9750083,-3.33,-8.32,-10.79
30.0560083,0.98,-6,-5.53
30.1370083,-3.14,-9.22,-6.04
30.2180083,2.2,-7.45,-3.06
30.2990083,1.45,-7.69,-2.94
30.3800083,-0.39,-10.51,-3.49
30.4610083,0.31,-12.36,-1.06
30.5420083,2.31,-9.65,-9.53
30.6230083,-4.2,-9.34,-6.75
30.7040083,4.16,-9.34,-4.16
30.7850083,-3.22,-6,-2.35
30.8660083,-2.04,-8.16,-3.41
30.9470083,1.22,-9.38,-3.3
31.0280083,-1.06,-13.22,-2.2
31.1090083,-3.65,-8.63,-10.32
31.1900083,4.28,-9.18,-6.39
31.2710083,-5.26,-8.67,-5.73
31.3520083,2.75,-6.04,-3.02
31.4330083,1.22,-8.32,-3.65
31.5140083,-0.55,-9.18,-3.14
31.5950083,3.22,-10.75,-2.04
31.6760083,-1.1,-12.63,-9.3
31.7580083,-5.53,-6.16,-7.77
31.8380083,1.88,-8.71,-6.51
31.9200083,0.12,-6.35,-3.45
32.0000083,-1.49,-5.14,-3.02
32.0810083,-1.92,-9.06,-4.04
32.1630083,-0.43,-11.89,-2.59
32.2430083,-3.61,-8.83,-9.18
32.3240083,3.3,-8.59,-8.16
32.4050083,-5.61,-7.73,-5.53
32.4860083,2.98,-4.39,-3.41
33.2150083,-1.02,-9.38,-2.43
33.2960083,-3.06,-11.61,-2.35
33.3770083,-6.59,-9.81,-12.87
33.4580083,3.06,-7.22,-4.9
33.5390083,-4.43,-9.85,-5.26
33.6200083,2.51,-5.69,-3.61
33.7010083,1.02,-8.71,-4.82
33.7820083,-0.75,-9.1,-3.73
33.8630083,-0.27,-12.04,-2.82
33.9440083,2.86,-8,-8.98
34.0250083,-5.1,-6.63,-6.55
34.1060083,4.55,-8.32,-6.12
34.1870083,-2.63,-4.12,-2.79
34.2680083,-2.12,-8.79,-4.51
34.3490083,0.55,-8.55,-3.73
34.4300083,-2.2,-12.75,-3.02
34.5110083,-3.26,-9.85,-9.1
34.5920083,3.1,-5.41,-4.82
34.6730083,-3.96,-9.34,-6.08
34.7540083,0.9,-5.45,-3.45
34.8350083,1.22,-9.65,-4.24
34.9160083,-0.35,-8.36,-2.71
34.9970083,0.51,-10.67,-3.49
35.0780083,0.78,-10.75,-6.63
35.1590083,-1.77,-6.47,-8.43
35.2400083,0.94,-8.12,-6.32
35.3210083,-0.55,-3.88,-3.45
35.4020083,-2.75,-9.3,-4.75
35.4830083,-0.94,-7.77,-2.2
35.5640083,-1.14,-12.59,-3.33
35.6450083,-2.39,-11.38,-6.67
35.7260083,0.39,-5.53,-8.39
35.8070083,-2.43,-6.86,-5.77
35.8880083,-0.2,-4.55,-4.16
35.9690083,1.69,-9.89,-4.82
36.0500083,0.35,-7.45,-3.18
36.1310083,0.24,-10.08,-3.96
36.2120083,2.31,-10.16,-6.98
36.2930083,-0.51,-6.83,-10.59
36.3740083,0,-9.18,-6.43
36.4550083,-0.24,-3.53,-3.65
36.5360083,-3.1,-9.53,-4.98
36.6170083,-1.1,-7.1,-2.71
36.8600083,1.41,-7.73,-9.45
36.9410083,-2.04,-6.71,-4.55
37.0220083,-0.35,-4.86,-4
37.1030083,0.86,-9.77,-4.51
37.1840083,0.43,-6.16,-3.26
37.2650083,-0.31,-10.51,-5.14
37.3460083,1.77,-12.24,-2.59
37.4270083,2.08,-10.47,-9.26
37.5080083,-6.63,-10.16,-5.57
37.5890083,5.73,-7.96,-3.53
37.6700083,-2.98,-5.84,-3.02
37.7510083,-2,-7.69,-3.96
37.8320083,-0.63,-8.04,-3.96
37.9130083,-2.63,-14.36,-5.14
37.9940083,-2.28,-8.51,-7.49
38.0750083,3.45,-4.94,-4.9
38.1560083,-4.59,-10.63,-7.88
38.2370083,0.35,-3.33,-3.1
38.3180083,0.27,-9.89,-5.1
38.3990083,-0.16,-7.85,-4.35
38.4800083,0.86,-9.77,-4.55
40.1830083,-0.75,-7.37,-1.69
40.2640083,-1.22,-12.2,-3.77
40.3450083,-2.47,-9.89,-4.75
41.2360083,-3.84,-10.12,-4.98
41.3170083,0.39,-6.94,-2
41.3980083,-1.02,-13.49,-3.41
41.7220083,0.98,-4.2,-3.06
41.8030083,0.59,-9.69,-4.04
41.8840083,-0.24,-8.83,-2.86
41.9650083,0.59,-11.14,-3.02
42.0460083,1.02,-11.41,-6.39
42.1270083,-2.2,-6.04,-8.24
42.2080083,1.61,-7.69,-7.02
42.2890083,-0.51,-3.57,-3.37
42.3700083,-2.82,-8.71,-4.63
42.4510083,-0.55,-7.73,-2.28
42.5320083,-1.49,-12.24,-2.98
42.6130083,-1.57,-10.9,-7.06
42.6940083,0.78,-5.18,-9.06
42.7750083,-2.2,-5.88,-5.73
42.8560083,-0.63,-5.57,-4.59
42.9370083,2.31,-9.69,-4.98
43.0180083,1.1,-7.49,-3.3
43.0990083,-0.94,-10.08,-4.75
43.1800083,2.04,-12.32,-2.9
43.2610083,1.69,-7.49,-9.53
43.3420083,-3.8,-10.36,-6.63
43.4230083,3.33,-5.37,-4.47
43.5040083,-3.92,-7.85,-3.88
43.5850083,-1.49,-7.77,-2.98
43.6660083,0.39,-11.1,-4.16
43.7470083,-3.37,-10.67,-5.33
43.8280083,-1.22,-6.75,-11.77
43.9090083,-1.02,-7.81,-5.41
43.9900083,-2.9,-4.2,-4.28
44.0710083,3.18,-10.16,-4.2
44.1520083,0.75,-7.14,-3.14
44.2330083,-0.2,-10.36,-4.39
44.3140083,-1.26,-13.42,-2.2
44.3950083,3.92,-9.41,-10.71
44.4760083,-4.67,-9.53,-6.51
44.5570083,2.79,-7.69,-3.88
44.6380083,-2.98,-7.06,-3.84
44.7190083,-1.22,-6.08,-3.1
44.8000083,-0.86,-10.55,-3.8
44.8810083,-0.51,-12.24,-2.94
44.9620083,-3.84,-11.18,-10.59
45.0430083,3.14,-4.43,-4.82
45.1240083,-4.28,-9.26,-5.88
45.2050083,2.12,-6.43,-4.24
45.2860083,0.82,-8.28,-4.71
45.3670083,-0.51,-9.69,-3.53
45.4480083,0.31,-10.16,-4.08
45.5290083,2.12,-9.77,-3.69
45.6100083,2.16,-7.26,-10.83
45.6910083,-2.51,-9.34,-6.86
45.7720083,1.92,-6.2,-5.02
45.8530083,-3.37,-7.81,-4.24
45.9340083,-2.16,-6.59,-2.9
46.0150083,-1.06,-10.55,-4.43
46.0960083,-0.82,-11.02,-3.49
46.1770083,-3.26,-8,-12.47
46.2580083,-1.22,-6.86,-5.1
46.3390083,-0.16,-6.83,-5.53
46.4200083,1.77,-7.77,-4.47
46.5010083,0.98,-7.41,-3.77
46.5820083,0.24,-10.4,-4.51
46.6630083,-0.35,-12.71,-2.04
46.7440083,2.82,-7.06,-10.2
46.8250083,-2.63,-8.43,-6.32
46.9060083,3.37,-8.9,-4.47
47.2300083,0.04,-13.14,-4.59
47.3110083,-4.59,-12.94,-11.06
47.3920083,3.53,-3.18,-1.77
48.2020083,-3.77,-8.47,-4.71
48.2830083,-1.92,-6.51,-3.02
48.3640083,0.75,-10.2,-4.08
49.1740083,-6.04,-6.9,-7.65
50.7130083,-1.53,-12.32,-3.02
50.7940083,-1.02,-10.51,-6.32
50.8750083,5.77,-8.87,-9.38
50.9560083,-5.45,-5.02,-5.14
51.0370083,2.75,-5.22,-3.33
51.1180083,1.14,-9.14,-2.43
51.1990083,0.9,-8.36,-3.14
51.2800083,0.67,-10.75,-2.59
51.3610083,1.57,-9.96,-7.49
51.4420083,-5.45,-9.85,-10.47
51.5230083,2.04,-5.06,-5.53
51.6040083,-1.29,-2.63,-3.61
51.6850083,-4.82,-11.3,-5.14
51.7660083,0.71,-6.39,-1.22
51.8470083,-0.9,-13.18,-2.04
51.9280083,-4.71,-11.22,-9.06
52.0090083,6.32,-8.47,-10.63
52.0900083,-6.83,-6.63,-3.84
52.1710083,1.69,-5.96,-2.24
52.2520083,-0.08,-9.02,-3.77
52.3330083,-0.35,-8.98,-3.26
52.4140083,3.33,-11.45,-2.51
52.4950083,1.49,-7.3,-9.41
52.5760083,-4.98,-7.61,-7.77
52.6570083,3.73,-8.28,-5.96
52.7380083,-2.39,-4.94,-2.79
52.8190083,-2.16,-8.79,-4.08
52.9000083,0.9,-8.39,-3.3
52.9810083,-2.24,-13.1,-2.94
53.0620083,-3.06,-10.12,-7.14
53.1430083,3.57,-6.28,-7.37
53.2240083,-4.04,-7.53,-5.96
53.3050083,0.24,-4.47,-3.53
53.3860083,0.82,-9.89,-4.08
53.4670083,0.24,-8.24,-2.75
53.5480083,0.75,-9.92,-3.45
53.6290083,1.37,-11.61,-3.84
53.7100083,1.73,-6.94,-10.12
53.7910083,-3.06,-10.36,-6.28
53.8720083,2.43,-6.39,-4.28
53.9530083,-3.02,-7.49,-3.8
54.0340083,-2.12,-6.43,-2.55
54.1150083,0.82,-9.61,-4.59
54.1960083,-1.57,-12.94,-5.22
54.2770083,-2.12,-7.88,-11.26
54.3580083,-1.45,-6.79,-4.08
54.4390083,-0.39,-6.86,-5.02
54.5200083,1.45,-9.22,-4.35
54.6010083,0.94,-7.92,-4.12
54.6820083,0.04,-10.16,-4.16
54.7630083,2.79,-10.55,-6.98
54.8440083,0.43,-6.55,-10.04
54.9250083,-2.12,-8.63,-6.63
55.0060083,0.08,-5.92,-4.12
55.0870083,-2.47,-7.81,-4.2
55.1680083,-0.75,-6.75,-3.61
55.2490083,-0.16,-10.32,-4.51
55.3300083,-3.3,-13.81,-3.77
55.4110083,-3.22,-7.88,-10.75
55.4920083,3.22,-6.32,-4.35
55.5730083,-3.1,-10.55,-5.73
55.6540083,2.9,-7.22,-3.57
55.7350083,0.94,-8.75,-3.96
55.8160083,-0.78,-9.38,-3.41
55.8970083,0.98,-12.51,-2.79
56.7070083,-5.18,-8.28,-6.71
56.7880083,1.84,-4.39,-2.79
56.8690083,0.59,-10.59,-4.86
56.9500083,-0.2,-7.73,-3.02
57.0310083,0.12,-10.63,-3.96
57.1120083,2.16,-10.2,-6.94
57.1930083,-1.69,-5.96,-9.57
57.2740083,0.43,-9.65,-6.39
57.3550083,1.06,-2.2,-3.49
57.4360083,-3.84,-10.87,-5.22
57.5170083,-1.1,-7.14,-2.63
57.5980083,-1.33,-11.41,-3.37
57.6790083,-3.61,-9.65,-4.39
57.7600083,-2.55,-8.63,-13.1
57.8410083,-3.41,-7.41,-5.65
57.9220083,-0.16,-2.63,-4.08
58.0030083,2.2,-10.43,-3.88
58.0840083,0.35,-7.85,-2.51
58.1650083,1.22,-11.38,-2.98
58.2460083,0.39,-11.69,-6.59
58.3270083,-3.77,-8.63,-9.22
58.4080083,0.04,-8.12,-4.79
58.4890083,0.55,-2,-3.41
58.5700083,-3.18,-11.61,-4.9
58.6510083,0.08,-7.57,-1.57
58.7320083,-2,-10.71,-3.18
58.8130083,-2.9,-10.24,-6.32
58.8940083,4.28,-9.1,-9.69
58.9750083,-3.26,-6.47,-4.39
59.0560083,-0.55,-4.43,-3.61
59.1370083,1.53,-9.89,-3.8
59.2180083,0.63,-8.71,-3.06
59.2990083,0.9,-9.96,-3.3
59.3800083,1.41,-11.73,-7.85
59.4610083,-2.82,-6.08,-10.24
59.5420083,0.47,-8.16,-5.84
59.6230083,0.59,-3.02,-4.59
59.7040083,-3.69,-10.79,-5.26
59.7850083,-0.75,-6.16,-2.31
59.8660083,-2.2,-10.55,-4.12
59.9470083,-1.92,-11.14,-4.28
60.0280083,-1.14,-7.81,-11.61
60.1090083,-1.06,-5.49,-4.47
60.1900083,-1.26,-6.47,-5.06
60.2710083,1.45,-9.06,-4.08
60.3520083,0.12,-7.18,-3.53
60.4330083,-0.86,-9.85,-3.73
60.5140083,1.18,-9.57,-2.2
60.5950083,1.88,-11.69,-8.71
60.6760083,-5.33,-6,-6.59
60.7570083,1.96,-7.92,-4.94
60.8380083,0.2,-5.77,-4.63
60.9190083,-3.33,-9.85,-5.49
61.0000083,0.16,-6.63,-3.33
61.0810083,-1.22,-9.38,-3.33
