NAME:,walk1_4.csv,,
EXPERIMENT TIME:,06/6/2023 13:21,,
ACTIVITY TYPE:,Walking,,
COUNT OF ACTUAL STEPS:,181,,
,,,
Time [sec],ACC X,ACC Y,ACC Z
0.0,1.181,10.092,0.823
0.086,1.338,9.856,0.744
0.172,1.456,10.013,0.627
0.258,1.377,9.817,0.391
0.344,1.495,9.896,0.627
0.43,0.789,10.249,0.117
0.516,1.456,11.033,0.47
0.602,1.927,10.327,0.431
0.688,1.887,9.19,2.353
0.774,1.73,9.346,3.255
0.86,2.633,8.013,2.745
0.946,1.848,8.209,3.686
1.032,1.966,8.837,3.922
1.118,2.044,9.033,4.942
1.204,5.026,14.524,3.019
1.29,0.985,9.778,0.313
1.376,0.514,8.954,-0.432
1.462,0.436,9.15,-0.158
1.548,-0.113,8.837,-0.276
1.634,-0.231,10.209,0.274
1.72,-0.702,9.464,0.47
1.806,-0.388,9.346,1.097
1.892,-1.172,12.132,1.529
1.978,-0.858,14.642,-1.805
2.064,1.691,10.759,-2.982
2.15,0.593,8.209,-0.472
2.236,0.083,8.954,1.294
2.322,0.711,6.758,1.725
2.408,0.279,6.875,3.098
2.494,0.671,12.72,3.882
2.58,1.103,7.934,6.118
2.666,5.182,13.23,-0.589
2.752,-2.349,8.091,-0.707
2.838,1.221,7.895,0.234
2.924,0.279,9.739,0.195
3.01,-1.172,8.954,0.862
3.096,-0.192,9.935,1.019
3.182,-2.545,9.856,0.666
3.268,-0.388,13.583,-0.55
3.354,-1.368,11.072,-4.277
3.44,2.633,11.426,-0.354
3.526,-0.466,7.777,0.234
3.612,0.593,7.228,2.666
3.698,0.475,6.208,3.647
3.784,0.632,12.642,1.686
3.87,0.358,10.916,5.608
3.956,3.574,11.269,-0.315
4.042,0.005,7.974,-1.57
4.128,1.691,8.601,0.391
4.214,-0.349,9.582,0.195
4.3,-1.486,9.268,1.333
4.386,0.083,10.209,1.058
4.472,-1.721,10.759,1.764
4.558,-0.623,14.014,-2.433
4.644,1.064,10.563,-2.472
4.73,1.338,8.719,-0.432
4.816,0.044,8.209,0.784
4.902,1.26,8.013,2.039
4.988,0.122,6.561,3.608
5.074,0.671,12.916,2.745
5.16,0.789,10.249,0.98
5.246,5.339,11.426,-1.452
5.332,-1.918,9.033,-0.707
5.418,2.829,8.287,-0.158
5.504,-0.545,9.425,0.117
5.59,-0.937,9.582,0.666
5.676,-1.094,9.935,0.823
5.762,-1.878,10.092,1.097
5.848,-0.035,14.76,-2.002
5.934,0.083,9.739,-3.257
6.02,0.475,9.7,-0.668
6.106,-0.388,9.072,1.019
6.192,0.593,7.464,1.372
6.278,0.397,6.601,2.98
6.364,0.711,11.308,1.803
6.45,-1.172,10.17,6.785
6.536,2.633,14.76,-0.276
6.622,0.475,7.15,-0.707
6.708,1.613,9.739,0.587
6.794,-0.113,8.68,0.352
6.88,-1.29,8.876,1.411
6.966,0.475,9.543,0.94
7.052,-3.565,10.955,2.117
7.138,-0.152,15.387,-3.1
7.224,1.534,11.7,-2.237
7.31,0.397,8.601,-0.589
7.396,0.358,7.856,0.431
7.482,0.593,7.581,1.882
7.568,-0.349,6.326,2.549
7.654,1.103,14.642,2.47
7.74,0.711,14.014,-0.001
7.826,4.398,8.248,-0.629
7.912,0.044,9.582,-0.668
7.998,1.495,8.523,1.254
8.084,-0.662,8.562,1.058
8.17,-1.094,9.229,1.843
8.256,-0.152,10.719,1.058
8.342,-1.721,11.465,2.039
8.428,-1.918,12.916,-3.963
8.514,1.73,12.995,-0.393
8.6,-1.329,7.738,1.019
8.686,-0.349,6.248,1.294
8.772,0.436,7.189,2.784
8.858,0.005,9.739,2.156
8.944,1.299,14.603,5.765
9.03,-0.152,13.465,1.725
9.116,2.593,10.209,-0.864
9.202,0.946,9.307,-0.04
9.288,0.358,6.797,0.313
9.374,-0.545,9.425,0.666
9.46,-0.937,8.64,2.0
9.546,-0.27,10.406,0.627
9.632,-1.29,16.054,-0.236
9.718,-1.29,9.072,-3.649
9.804,1.142,10.366,-0.276
9.89,0.122,10.053,0.94
9.976,0.318,6.208,2.666
10.062,0.161,6.797,3.49
10.148,0.358,11.582,1.96
10.234,0.671,13.936,4.079
10.32,4.516,8.405,-0.276
10.406,-1.408,10.719,-0.158
10.492,1.652,8.327,0.47
10.578,-0.584,8.876,0.587
10.664,-1.565,8.758,1.372
10.75,-1.251,10.563,0.352
10.836,-1.957,11.975,-0.472
10.922,-1.918,10.68,-4.983
11.008,0.867,11.935,-1.139
11.094,-0.976,9.033,0.862
11.18,0.632,7.581,1.568
11.266,0.044,7.111,2.156
11.352,0.24,8.719,2.941
11.438,0.554,10.013,6.079
11.524,2.829,14.838,-0.197
11.61,-0.898,9.111,-0.707
11.696,2.437,8.954,0.431
11.782,0.083,8.287,-0.315
11.868,-2.074,9.111,1.176
11.954,-0.27,10.327,1.45
12.04,-1.878,10.327,1.568
12.126,0.201,14.564,-0.942
12.212,0.632,11.347,-2.198
12.298,0.279,9.19,-0.276
12.384,-0.074,8.091,1.411
12.47,-0.152,6.797,2.627
12.556,0.083,6.404,3.686
12.642,1.574,15.074,4.549
12.728,0.593,15.505,0.784
12.814,1.848,10.209,-0.903
12.9,0.122,7.974,0.274
12.986,1.299,7.817,0.784
13.072,-1.525,9.111,0.509
13.158,-0.466,9.346,1.49
13.244,-0.976,9.66,1.019
13.33,-0.584,15.034,-0.197
13.416,-1.878,10.955,-4.198
13.502,0.75,11.896,-0.354
13.588,-0.545,8.68,0.784
13.674,0.632,7.581,2.156
13.76,0.318,6.718,2.784
13.846,0.789,8.954,3.333
13.932,0.161,9.935,7.609
14.018,4.241,13.583,0.038
14.104,-1.839,8.209,-0.511
14.19,1.966,8.13,0.784
14.276,0.554,8.993,0.627
14.362,-1.721,8.915,1.137
14.448,-0.113,9.268,1.45
14.534,-2.153,9.66,1.097
14.62,-0.937,15.034,-1.609
14.706,0.671,10.209,-2.59
14.792,0.005,9.778,0.077
14.878,0.161,8.444,1.333
14.964,0.554,7.856,2.549
15.05,-0.152,6.13,3.373
15.136,0.475,13.936,2.549
15.222,0.044,11.661,-1.295
15.308,2.476,8.954,-0.432
15.394,-0.035,9.935,-0.432
15.48,1.142,8.091,0.156
15.566,-1.29,8.993,1.137
15.652,-1.486,8.837,1.49
15.738,-1.094,10.523,-0.197
15.824,-1.094,12.053,0.431
15.91,-2.153,10.406,-3.531
15.996,0.985,11.622,0.077
16.082,-0.152,8.405,0.784
16.168,0.828,7.032,1.921
16.254,0.318,6.404,3.529
16.34,-0.035,12.053,2.235
16.426,-0.074,10.563,4.236
16.512,4.084,9.935,1.137
16.598,-0.349,10.445,-0.04
16.684,0.671,9.386,0.98
16.77,-0.78,8.562,1.097
16.856,-1.212,9.15,0.94
16.942,-0.349,10.837,1.725
17.028,-1.918,11.19,2.0
17.114,-1.133,11.779,-2.08
17.2,0.789,12.877,0.627
17.286,-0.898,8.758,1.058
17.372,0.083,6.169,1.568
17.458,1.024,7.111,2.706
17.544,0.044,9.033,2.51
17.63,0.514,12.838,7.06
17.716,2.044,11.112,1.803
17.802,0.201,8.091,-0.825
17.888,0.907,9.111,0.784
17.974,-0.545,8.484,0.744
18.06,-1.565,8.68,0.94
18.146,-0.505,10.131,1.019
18.232,-2.506,9.896,0.627
18.318,-1.015,14.603,-1.609
18.404,0.671,10.288,-2.08
18.49,0.005,9.621,-0.001
18.576,0.318,7.032,1.372
18.662,0.593,8.013,2.863
18.748,-0.113,6.993,3.176
18.834,1.024,14.564,3.098
18.92,-0.976,13.505,0.901
19.006,1.417,9.66,-1.256
19.092,0.554,9.935,0.234
19.178,0.358,8.209,0.744
19.264,-1.408,8.797,0.587
19.35,-1.29,9.425,1.568
19.436,-0.819,10.994,-0.589
19.522,-1.604,13.073,0.627
19.608,-2.31,11.386,-3.257
19.694,1.848,12.72,0.587
19.78,-1.408,7.738,1.607
19.866,0.122,7.503,2.117
19.952,1.299,6.875,3.49
20.038,-0.741,11.975,3.333
20.124,-0.074,10.092,6.589
20.21,2.829,12.014,0.823
20.296,-0.623,9.072,-0.746
20.382,0.789,7.974,0.94
20.468,0.318,8.287,0.077
20.554,-1.682,9.896,0.744
20.64,-0.937,8.523,1.49
20.726,-0.858,9.896,0.391
20.812,-1.172,13.74,0.391
20.898,-1.918,10.131,-3.257
20.984,0.397,12.877,-0.393
21.07,0.436,7.738,0.195
21.156,-0.192,7.503,2.313
21.242,-0.152,6.169,4.039
21.328,-0.309,12.485,3.529
21.414,0.044,10.641,6.432
21.5,3.888,9.464,0.627
21.586,-0.819,9.856,-0.432
21.672,0.201,8.248,0.94
21.758,-0.937,9.033,0.313
21.844,-1.761,10.249,0.862
21.93,-0.976,9.543,0.627
22.016,-2.192,9.817,1.333
22.102,-0.898,14.838,-1.648
22.188,1.652,11.386,-2.982
22.274,-0.505,10.445,0.077
22.36,-0.388,7.66,1.254
22.446,0.554,8.366,2.353
22.532,-0.388,6.248,3.843
22.618,0.514,13.818,3.608
22.704,0.436,10.876,2.313
22.79,3.653,8.052,0.077
22.876,0.005,10.053,-0.119
22.962,1.613,8.013,0.862
23.048,-0.858,9.19,0.98
23.134,-1.721,9.033,1.568
23.22,-1.172,11.19,1.45
23.306,-1.094,11.229,1.45
23.392,-2.31,12.367,-2.276
23.478,1.77,13.387,-0.55
23.564,-0.192,8.17,0.313
23.65,-0.388,6.836,1.372
23.736,0.632,7.385,2.353
23.822,0.005,7.895,3.098
23.908,-0.035,13.348,5.765
23.994,-0.623,13.112,0.627
24.08,2.319,9.346,-1.374
24.166,1.142,8.797,0.274
24.252,0.711,9.268,1.058
24.338,-1.055,8.837,1.294
24.424,-1.525,8.954,2.039
24.51,-0.466,10.719,1.411
24.596,-1.604,11.151,1.686
24.682,-2.741,12.642,-2.355
24.768,1.417,12.328,-0.864
24.854,-0.858,8.17,-0.001
24.94,0.907,8.052,1.372
25.026,0.358,6.444,3.176
25.112,0.358,8.17,2.117
25.198,0.161,12.955,6.315
25.284,-2.428,11.072,0.077
25.37,4.045,9.935,-1.492
25.456,0.397,9.268,-0.158
25.542,0.828,8.954,0.744
25.628,-1.094,9.425,1.176
25.714,-1.408,9.15,1.372
25.8,-1.172,10.445,1.097
25.886,-1.486,11.661,1.568
25.972,-3.016,12.014,-3.571
26.058,1.574,13.622,0.352
26.144,-1.094,8.091,1.215
26.23,0.279,7.189,1.803
26.316,0.632,7.032,3.137
26.402,-0.662,9.856,2.941
26.488,0.358,11.622,6.628
26.574,1.73,14.25,1.803
26.66,0.044,8.13,-1.099
26.746,0.985,8.562,0.666
26.832,0.711,8.523,0.862
26.918,-1.839,9.464,1.176
27.004,-0.662,8.68,1.411
27.09,-0.937,10.523,0.47
27.176,-0.192,14.211,0.234
27.262,-2.506,11.269,-3.453
27.348,0.75,11.112,-0.825
27.434,0.005,8.797,0.509
27.52,-0.074,7.581,1.686
27.606,0.083,6.954,3.255
27.692,0.044,10.563,2.863
27.778,-0.388,9.778,6.942
27.864,2.554,12.955,1.45
27.95,-0.505,8.091,-0.354
28.036,0.946,9.268,0.784
28.122,-0.192,7.581,0.548
28.208,-1.682,9.111,0.862
28.294,-0.584,10.249,1.215
28.38,-2.035,9.543,0.666
28.466,0.044,14.995,-1.962
28.552,-0.27,10.563,-2.198
28.638,-0.074,10.994,0.117
28.724,-0.152,7.817,0.352
28.81,0.397,7.15,2.039
28.896,0.318,7.228,2.235
28.982,-0.27,14.446,3.765
29.068,1.652,11.7,0.038
29.154,3.574,9.739,0.195
29.24,-1.133,10.406,0.627
29.326,0.907,8.091,1.019
29.412,-0.349,9.111,0.391
29.498,-1.839,8.17,2.196
29.584,-0.466,10.288,0.391
29.67,-1.212,12.328,0.47
29.756,-1.525,12.838,-1.139
29.842,1.142,11.269,0.823
29.928,-1.094,7.503,1.097
30.014,0.867,7.346,2.431
30.1,0.632,6.483,3.765
30.186,0.279,13.151,2.823
30.272,0.75,13.818,2.823
30.358,3.809,6.169,-0.119
30.444,-0.976,12.249,0.862
30.53,0.593,8.837,1.45
30.616,-0.584,8.64,0.705
30.702,-1.251,8.797,1.96
30.788,-0.505,10.916,0.47
30.874,-1.918,10.406,1.843
30.96,-0.584,15.152,-2.198
31.046,1.377,9.739,-1.413
31.132,0.201,9.307,-0.393
31.218,0.24,8.248,1.137
31.304,0.318,8.013,2.47
31.39,0.514,6.914,2.51
31.476,0.946,14.681,3.961
31.562,0.554,9.464,1.215
31.648,4.869,10.366,-0.472
31.734,-1.094,10.209,-0.197
31.82,0.711,8.052,0.391
31.906,-1.133,9.268,0.784
31.992,-1.565,8.797,1.568
32.078,-0.584,10.209,0.862
32.164,-1.447,11.661,3.019
32.25,-0.898,13.465,-3.453
32.336,1.064,12.328,-1.492
32.422,-0.27,8.915,0.234
32.508,0.201,8.209,1.176
32.594,0.201,7.228,2.627
32.68,-0.27,6.797,2.745
32.766,-0.074,13.465,6.903
32.852,-1.565,10.994,2.313
32.938,3.221,10.876,-1.139
33.024,0.083,8.719,-0.315
33.11,1.064,8.915,0.666
33.196,-1.839,8.876,0.587
33.282,-1.251,8.954,1.176
33.368,0.436,10.445,-0.119
33.454,-0.505,12.798,0.784
33.54,-2.584,12.916,-3.727
33.626,2.319,13.661,0.509
33.712,-1.212,7.424,0.509
33.798,0.475,6.522,2.039
33.884,0.201,6.522,3.216
33.97,-0.231,12.092,3.451
34.056,-0.152,10.288,6.746
34.142,2.868,13.936,1.137
34.228,-1.172,8.954,-0.629
34.314,1.887,8.993,0.038
34.4,0.514,7.424,-0.354
34.486,-2.035,9.268,1.49
34.572,-1.094,9.229,1.568
34.658,-1.682,9.817,1.097
34.744,-1.094,12.053,0.234
34.83,-0.702,12.053,-4.708
34.916,2.044,10.798,-0.197
35.002,-0.623,7.777,0.705
35.088,0.632,8.366,2.549
35.174,-0.035,7.071,3.216
35.26,0.867,10.68,3.255
35.346,-0.623,9.072,5.765
35.432,5.104,10.563,0.705
35.518,-1.761,9.66,-1.06
35.604,1.73,8.758,0.313
35.69,0.436,8.405,0.234
35.776,-1.565,8.444,1.529
35.862,-2.192,10.17,1.019
35.948,-1.133,10.484,1.097
36.034,-0.662,14.524,-2.002
36.12,-0.858,9.503,-2.629
36.206,0.554,9.111,-1.06
36.292,0.358,8.523,1.019
36.378,0.005,7.621,2.431
36.464,-0.035,6.326,4.039
36.55,-0.074,13.191,4.824
36.636,1.887,14.407,-0.158
36.722,4.398,7.464,-1.531
36.808,-1.29,8.876,-0.236
36.894,0.279,8.837,0.313
36.98,-0.898,9.346,1.45
37.066,-1.486,9.386,1.45
37.152,-1.29,11.151,1.058
37.238,-1.721,11.661,2.0
37.324,-2.31,13.073,-3.649
37.41,1.417,12.798,-1.06
37.496,-1.643,7.542,0.352
37.582,0.318,7.777,0.901
37.668,0.514,7.542,2.549
37.754,0.122,9.033,2.98
37.84,0.436,10.955,5.844
37.926,1.338,14.407,2.392
38.012,0.711,8.64,0.156
38.098,0.24,8.954,0.666
38.184,0.475,8.484,0.666
38.27,-1.682,8.444,0.313
38.356,-0.976,9.346,1.019
38.442,-0.231,11.465,0.195
38.528,-1.486,12.328,0.666
38.614,-3.408,9.817,-3.688
38.7,2.084,12.406,-0.236
38.786,-1.251,7.424,0.431
38.872,0.279,8.052,1.45
38.958,0.475,7.307,2.235
39.044,0.161,9.464,2.745
39.13,0.358,13.387,6.393
39.216,1.691,10.994,2.588
39.302,2.201,9.072,-0.746
39.388,0.397,8.719,0.431
39.474,0.318,8.758,0.627
39.56,-1.408,7.934,0.784
39.646,-1.878,9.386,1.019
39.732,0.083,11.347,0.117
39.818,-0.937,13.897,-0.197
39.904,-2.074,8.484,-3.335
39.99,1.338,12.485,-0.236
40.076,-0.505,7.621,0.47
40.162,0.632,7.189,1.843
40.248,0.122,6.758,3.294
40.334,0.75,11.818,2.313
40.42,0.789,13.387,5.177
40.506,3.535,8.287,0.705
40.592,-1.643,10.876,-0.786
40.678,0.711,8.405,0.391
40.764,-0.898,9.464,0.117
40.85,-1.212,8.523,1.019
40.936,-1.015,10.484,1.019
41.022,-3.918,11.386,0.98
41.108,-1.643,14.603,-0.589
41.194,-1.682,8.797,-2.943
41.28,1.574,10.484,-1.021
41.366,-0.192,8.797,0.47
41.452,0.554,7.346,1.686
41.538,0.083,5.62,3.843
41.624,-0.309,16.133,5.491
41.71,2.044,12.995,-3.061
41.796,4.123,8.052,-0.825
41.882,-0.035,8.876,-0.472
41.968,1.103,9.072,0.548
42.054,-1.015,8.562,0.234
42.14,-1.055,8.64,1.49
42.226,-0.819,10.759,0.195
42.312,-2.035,13.269,0.156
42.398,-2.388,11.896,-4.63
42.484,1.927,11.229,0.156
42.57,-1.055,8.052,0.862
42.656,0.122,7.111,2.156
42.742,0.593,7.267,2.784
42.828,-0.113,10.013,2.431
42.914,-0.27,11.739,6.785
43.0,4.633,11.229,1.568
43.086,-2.624,10.955,-0.589
43.172,1.848,7.974,0.862
43.258,-1.094,8.64,0.352
43.344,-2.074,8.876,1.411
43.43,-0.898,8.993,0.784
43.516,-1.525,11.7,1.803
43.602,-0.623,15.387,-3.218
43.688,1.377,11.269,-2.002
43.774,-1.29,7.856,0.705
43.86,0.279,7.581,0.784
43.946,0.75,7.66,2.353
44.032,0.005,6.718,3.019
44.118,0.946,15.23,4.785
44.204,0.907,16.093,0.862
44.29,1.887,8.876,-0.629
44.376,0.044,8.523,0.195
44.462,0.475,8.523,0.666
44.548,-1.525,8.17,0.823
44.634,-1.172,9.229,1.254
44.72,-0.662,11.033,0.156
44.806,-0.349,15.74,-0.903
44.892,-1.251,10.092,-4.198
44.978,-0.388,11.386,-0.158
45.064,-0.309,8.248,0.195
45.15,0.985,7.464,1.372
45.236,0.279,7.032,2.941
45.322,-0.074,11.504,2.823
45.408,0.867,11.347,3.137
45.494,4.398,8.954,-0.236
45.58,-1.643,10.523,-0.432
45.666,0.828,8.444,0.705
45.752,-0.819,9.19,0.038
45.838,-1.682,9.307,1.294
45.924,-0.858,9.935,0.862
46.01,-1.996,10.484,1.803
46.096,-1.878,15.505,-3.414
46.182,0.985,11.112,-1.452
46.268,-0.623,8.484,-0.432
46.354,0.75,8.013,0.666
46.44,0.554,7.817,2.117
46.526,-0.231,6.326,3.922
46.612,0.044,15.74,4.0
46.698,0.122,17.074,-0.942
46.784,2.24,8.837,-1.06
46.87,0.475,9.346,-0.079
46.956,0.828,8.484,-0.04
47.042,-2.114,8.68,1.215
47.128,-1.172,8.68,1.882
47.214,-1.172,10.406,-0.001
47.3,-1.29,12.602,0.391
47.386,-2.271,10.641,-4.63
47.472,1.809,11.896,-0.04
47.558,-0.78,8.248,0.548
47.644,0.436,7.934,1.568
47.73,0.632,6.679,3.176
47.816,-0.819,11.308,3.137
47.902,-0.466,10.366,5.177
47.988,3.888,10.406,1.647
48.074,-2.741,9.817,-1.178
48.16,1.221,7.856,-0.04
48.246,-0.388,9.7,0.47
48.332,-2.663,9.268,1.019
48.418,-0.937,8.601,1.647
48.504,-0.937,10.837,0.47
48.59,-2.153,12.877,-0.119
48.676,-2.31,10.445,-4.512
48.762,1.495,11.779,-0.55
48.848,-1.055,8.64,0.98
48.934,-0.27,6.993,1.254
49.02,0.789,7.032,2.666
49.106,0.279,11.072,2.156
49.192,-1.721,7.071,6.393
49.278,1.77,14.564,0.391
49.364,-1.918,6.326,-1.413
49.45,1.024,11.347,-0.432
49.536,-1.643,7.974,-0.119
49.622,-1.8,9.543,0.117
49.708,-1.721,9.621,0.195
49.794,-1.996,10.68,0.038
49.88,-2.192,12.092,-0.079
49.966,-3.094,12.838,-3.021
50.052,2.633,10.759,-1.021
50.138,-0.545,8.091,0.431
50.224,-0.78,8.64,1.294
50.31,0.005,8.915,2.274
50.396,0.201,8.523,2.196
50.482,-0.074,9.778,1.725
50.568,-1.604,9.739,5.02
50.654,3.849,13.073,-0.903
50.74,-0.192,6.365,-2.08
50.826,1.73,10.837,-0.119
50.912,-0.192,9.974,0.627
50.998,-1.055,8.758,0.94
51.084,-1.251,8.993,1.294
51.17,-1.329,9.974,0.98
51.256,-2.192,10.013,0.744
51.342,-1.251,11.426,0.117
51.428,-3.604,13.308,-1.492
51.514,2.24,9.935,-2.158
51.6,-0.035,9.935,-0.511
51.686,-0.741,9.66,0.587
51.772,0.514,7.503,1.019
51.858,0.593,7.503,2.902
51.944,-0.192,11.072,1.843
52.03,0.083,12.955,6.981
52.116,0.201,13.348,0.431
52.202,1.809,6.679,-1.374
52.288,-1.172,11.19,-0.079
52.374,0.867,10.131,0.47
52.46,-1.682,8.484,1.254
52.546,-2.074,8.523,1.607
52.632,-0.741,10.327,0.627
52.718,-2.349,10.249,1.49
52.804,-1.368,13.465,0.077
52.89,-2.545,10.994,-3.688
52.976,1.26,11.504,0.077
53.062,0.122,8.915,0.038
53.148,-0.623,7.817,1.803
53.234,0.514,7.032,3.098
53.32,-0.349,9.817,2.863
53.406,1.181,12.092,6.981
53.492,2.358,10.759,1.96
53.578,-0.741,9.7,-0.825
53.664,1.064,8.954,0.156
53.75,-0.427,9.346,0.784
53.836,-1.996,9.268,1.176
53.922,-0.702,8.876,0.94
54.008,-1.525,10.209,0.352
54.094,-1.408,10.994,1.96
54.18,-1.761,13.818,-2.002
54.266,0.475,9.543,-1.923
54.352,-0.937,9.621,0.391
54.438,-0.505,8.68,0.823
54.524,0.632,7.111,1.215
54.61,0.279,7.032,3.333
54.696,-1.172,12.524,3.451
54.782,-0.741,12.485,4.039
54.868,5.065,12.053,-0.864
54.954,-3.134,7.777,-1.256
55.04,1.574,8.876,0.234
55.126,-0.388,10.053,-0.079
55.212,-2.388,8.876,0.627
55.298,-0.702,9.543,1.215
55.384,-2.035,9.817,0.274
55.47,0.318,14.681,-0.04
55.556,-2.231,10.994,-4.081
55.642,0.593,10.327,-0.315
55.728,-0.898,8.248,0.98
55.814,-0.074,7.974,2.235
55.9,0.279,7.895,3.255
55.986,-0.388,8.405,3.686
56.072,-0.113,11.7,7.766
56.158,2.947,15.23,-0.04
56.244,-1.8,5.502,-0.393
56.33,1.299,9.464,0.234
56.416,-0.152,10.327,0.509
56.502,-1.8,8.719,0.98
56.588,-1.447,9.15,1.254
56.674,-1.996,10.013,0.587
56.76,-1.055,15.074,-1.178
56.846,0.24,10.366,-1.884
56.932,-0.937,10.053,0.117
57.018,-0.466,8.13,0.823
57.104,0.397,7.542,2.0
57.19,-0.231,7.111,3.216
57.276,-1.133,15.191,2.313
57.362,-1.565,9.346,1.45
57.448,3.966,10.759,-1.492
57.534,-2.074,8.837,-0.825
57.62,1.103,9.856,0.47
57.706,-2.467,9.582,1.058
57.792,-1.447,8.837,1.764
57.878,-1.251,10.837,0.274
57.964,-0.505,12.21,-0.432
58.05,-3.997,12.877,-3.374
58.136,1.691,10.641,-0.197
58.222,-0.231,8.17,0.234
58.308,-0.035,7.777,1.764
58.394,0.083,7.542,3.098
58.48,0.083,8.209,2.784
58.566,-0.427,13.387,9.649
58.652,3.77,16.486,-1.413
58.738,-0.113,3.894,-1.335
58.824,1.142,9.15,-0.04
58.91,0.24,10.445,0.117
58.996,-2.388,8.523,1.215
59.082,0.201,9.464,1.764
59.168,-3.173,9.621,0.391
59.254,1.966,15.309,-2.629
59.34,0.161,11.622,-3.335
59.426,0.044,8.915,0.038
59.512,0.005,9.346,1.372
59.598,0.397,8.209,2.274
59.684,0.554,8.287,3.765
59.77,0.711,8.993,2.47
59.856,1.064,10.759,3.529
59.942,2.79,9.503,0.274
60.028,-2.192,8.013,-1.295
60.114,1.534,10.013,-1.256
60.2,-2.035,8.601,-0.079
60.286,-0.937,9.856,-0.001
60.372,-0.623,9.974,0.431
60.458,-1.878,9.464,0.862
60.544,-1.957,10.68,0.94
60.63,0.397,14.289,-0.982
60.716,-1.447,9.19,-2.472
60.802,-0.662,10.641,-0.825
60.888,-0.349,8.797,1.607
60.974,0.907,7.777,2.51
61.06,0.671,7.974,2.941
61.146,0.907,9.621,2.745
61.232,1.456,12.72,5.295
61.318,4.163,12.445,-1.57
61.404,-0.937,9.7,-0.079
61.49,-0.152,8.954,0.195
61.576,-1.094,9.033,1.019
61.662,-1.996,8.797,0.744
61.748,-2.231,8.68,1.49
61.834,-0.819,10.837,-0.707
61.92,-0.27,10.366,-1.217
62.006,-4.35,12.759,-4.198
62.092,-0.349,11.857,0.901
62.178,-0.466,7.189,0.548
62.264,0.318,7.346,1.764
62.35,0.671,6.404,4.314
62.436,-0.27,12.955,3.843
62.522,-0.702,10.955,4.863
62.608,3.888,9.856,-0.119
62.694,-3.055,9.621,-0.825
62.78,1.574,7.974,1.097
62.866,-0.466,8.405,0.705
62.952,-1.918,8.366,1.647
63.038,-1.329,9.935,1.372
63.124,-1.525,11.739,1.686
63.21,-1.839,13.975,-3.139
63.296,0.789,13.191,-0.079
63.382,-2.31,7.032,0.627
63.468,-0.309,6.797,0.901
63.554,0.828,7.66,2.666
63.64,-1.251,6.954,2.0
63.726,0.161,14.917,2.784
63.812,-1.015,14.721,-0.236
63.898,2.162,6.561,-1.766
63.984,0.397,10.523,0.117
64.07,-0.819,9.856,0.548
64.156,-2.506,8.64,1.529
64.242,-1.368,8.797,1.803
64.328,-1.329,9.778,0.391
64.414,-2.663,13.073,0.784
64.5,-3.055,13.387,-3.296
64.586,1.456,11.308,-1.06
64.672,-0.192,8.484,0.391
64.758,-0.702,8.13,1.921
64.844,0.24,6.718,3.333
64.93,0.161,9.111,2.706
65.016,-0.741,12.955,8.315
65.102,2.358,12.21,1.921
65.188,-0.505,9.033,-1.139
65.274,0.593,8.64,0.47
65.36,-0.27,8.876,0.784
65.446,-1.839,9.229,1.568
65.532,-0.741,8.993,1.294
65.618,-2.467,9.464,1.137
65.704,-0.192,16.839,-2.511
65.79,0.083,10.209,-2.708
65.876,-0.035,9.15,-0.197
65.962,-0.858,7.934,0.038
66.048,0.475,6.679,1.843
66.134,-0.074,6.993,3.686
66.22,-0.231,13.073,3.019
66.306,0.985,9.817,2.353
66.392,3.927,7.621,-0.511
66.478,-1.721,10.131,-0.315
66.564,0.789,8.327,0.705
66.65,-1.212,8.366,1.097
66.736,-1.565,8.797,1.607
66.822,-0.78,10.602,1.097
66.908,-2.781,11.582,2.666
66.994,-0.309,15.034,-2.786
67.08,-0.231,12.132,-1.021
67.166,-1.055,8.562,0.038
67.252,0.122,8.17,1.254
67.338,-0.074,6.993,2.823
67.424,-0.309,6.679,3.49
67.51,0.201,15.191,5.452
67.596,-0.074,17.937,-0.04
67.682,1.299,7.464,-1.335
67.768,-0.035,8.797,-0.472
67.854,0.122,8.523,0.627
67.94,-2.035,8.797,1.45
68.026,-1.8,8.797,1.686
68.112,-1.643,10.013,0.509
68.198,-0.898,12.72,-0.079
68.284,-0.584,9.974,-4.355
68.37,-0.152,11.739,0.352
68.456,-1.8,7.503,0.744
68.542,-0.113,6.13,2.117
68.628,-0.113,6.758,3.569
68.714,-0.427,15.74,2.353
68.8,-0.035,9.346,0.195
68.886,3.221,10.445,-1.099
68.972,-0.113,9.739,-0.864
69.058,0.946,9.19,0.744
69.144,-0.427,8.248,1.607
69.23,-0.976,8.68,2.0
69.316,-1.094,10.053,0.431
69.402,-1.408,11.072,2.078
69.488,0.75,14.407,-2.511
69.574,0.907,12.171,-0.511
69.66,-0.623,7.974,0.705
69.746,-0.349,8.13,1.529
69.832,0.397,7.621,2.745
69.918,0.005,8.209,1.764
70.004,-1.172,12.995,4.079
70.09,0.514,12.563,0.47
70.176,2.868,10.013,-1.766
70.262,-0.466,10.092,-1.06
70.348,-0.505,11.426,0.431
70.434,-1.878,8.366,1.686
70.52,-3.134,8.719,2.078
70.606,-1.565,10.327,1.372
70.692,-0.584,11.19,2.274
70.778,-3.094,13.897,-1.923
70.864,0.358,11.896,-1.021
70.95,-0.819,8.719,0.431
71.036,-0.702,8.248,1.725
71.122,0.554,6.248,2.666
71.208,0.436,9.033,2.627
71.294,1.652,14.485,3.333
71.38,1.103,10.249,3.451
71.466,-2.074,10.288,-1.06
71.552,0.005,7.464,0.234
71.638,-0.505,8.68,0.823
71.724,-2.82,9.307,1.45
71.81,-1.839,8.562,1.843
71.896,-0.78,9.856,-0.276
71.982,-0.937,16.878,-2.865
72.068,-0.231,11.386,-1.295
72.154,-1.682,8.013,-0.511
72.24,0.083,7.542,1.058
72.326,0.318,7.503,1.96
72.412,0.711,8.248,2.51
72.498,0.044,12.642,4.118
72.584,-0.074,15.819,0.98
72.67,0.475,7.307,-0.354
72.756,-0.192,9.111,0.352
72.842,0.946,9.19,0.823
72.928,-2.192,8.758,1.45
73.014,-1.918,9.739,2.235
73.1,-0.898,9.464,0.627
73.186,-2.859,16.682,-1.06
73.272,1.377,10.445,-0.786
73.358,-1.29,8.052,0.823
73.444,-0.231,6.836,0.627
73.53,0.24,7.464,2.51
73.616,0.083,7.228,2.51
73.702,1.181,15.623,3.059
73.788,-1.8,13.622,1.411
73.874,1.73,8.68,-0.668
73.96,-0.152,9.621,0.627
74.046,0.358,9.935,1.097
74.132,-1.839,8.993,0.901
74.218,-1.8,9.033,1.647
74.304,-2.506,10.013,0.666
74.39,-0.388,10.798,1.803
74.476,-2.663,14.328,-2.08
74.562,-1.761,9.739,-2.355
74.648,-1.525,10.445,-0.55
74.734,0.201,6.091,0.587
74.82,0.318,6.522,2.0
74.906,0.161,5.738,2.588
74.992,-1.721,15.858,4.079
75.078,-0.309,15.78,0.98
75.164,1.142,9.072,-0.472
75.25,0.907,9.935,0.431
75.336,0.083,8.797,0.548
75.422,-1.565,8.444,0.784
75.508,-1.839,8.601,1.607
75.594,-1.212,10.994,0.117
75.68,-1.682,11.622,1.176
75.766,-5.095,13.544,-2.158
75.852,0.083,13.112,-0.197
75.938,-0.349,8.209,0.705
76.024,0.475,7.307,1.45
76.11,0.318,5.934,2.392
76.196,0.475,9.66,2.627
76.282,-0.505,10.837,8.001
76.368,3.731,10.994,1.097
76.454,-1.525,9.464,-0.668
76.54,1.495,8.523,0.234
76.626,0.005,7.071,0.431
76.712,-1.918,8.327,1.097
76.798,-0.898,9.543,2.706
76.884,-2.467,9.974,1.882
76.97,-1.643,15.74,-3.296
77.056,0.083,10.68,-3.335
77.142,-1.918,8.797,-0.746
77.228,-0.074,6.64,0.94
77.314,0.083,6.954,2.51
77.4,-0.388,5.777,3.686
77.486,-1.408,18.016,5.608
77.572,-0.819,16.917,2.745
77.658,1.495,8.797,-0.629
77.744,-0.545,9.621,0.313
77.83,0.475,8.248,0.901
77.916,-2.035,9.19,0.666
78.002,-1.682,8.68,1.843
78.088,-1.957,9.268,1.058
78.174,-1.996,12.72,-1.531
78.26,-3.291,10.798,-4.394
78.346,-0.388,14.014,-0.746
78.432,-0.937,8.68,0.744
78.518,0.044,6.914,1.333
78.604,0.514,5.934,2.706
78.69,-1.094,11.229,2.51
78.776,-0.858,9.739,7.021
78.862,1.927,15.78,-0.432
78.948,-0.976,8.248,-0.119
79.034,1.417,10.288,1.176
79.12,-1.172,7.424,0.705
79.206,-1.761,8.366,1.176
79.292,-0.427,9.543,1.529
79.378,-1.918,10.955,2.941
79.464,-1.525,16.682,-4.159
79.55,1.064,13.779,-0.354
79.636,-1.604,8.327,0.862
79.722,0.044,6.248,1.019
79.808,0.005,6.091,3.412
79.894,-0.427,8.17,1.372
79.98,-0.505,10.406,7.648
80.066,4.163,15.427,-1.256
80.152,1.181,10.445,-0.354
80.238,0.514,7.895,-0.746
80.324,-0.898,8.484,1.607
80.41,-2.035,7.228,1.725
80.496,-2.074,9.346,1.843
80.582,-0.623,10.092,2.588
80.668,-4.154,14.407,-4.63
80.754,1.142,14.642,-0.668
80.84,-2.663,9.268,0.195
80.926,0.436,6.718,1.529
81.012,-0.192,6.208,2.823
81.098,-1.055,7.895,3.098
81.184,-1.015,12.955,6.903
81.27,1.927,15.976,0.901
81.356,-2.31,10.366,-0.589
81.442,2.084,8.287,0.47
81.528,-0.349,7.346,0.195
81.614,-2.506,7.934,1.097
81.7,-1.015,8.444,1.725
81.786,-3.251,9.778,2.196
81.872,0.083,16.956,-3.767
81.958,0.436,13.779,-1.648
82.044,-1.604,9.464,-0.276
82.13,0.044,5.973,0.077
82.216,0.005,7.111,2.666
82.302,-0.584,6.601,3.059
82.388,-0.192,12.406,5.452
82.474,1.848,17.937,2.078
82.56,-3.761,8.719,-0.079
82.646,2.476,8.17,0.313
82.732,-0.152,8.562,0.117
82.818,-2.271,8.052,1.176
82.904,-0.466,8.876,1.45
82.99,-3.33,9.778,1.725
83.076,-2.467,15.819,-4.316
83.162,1.534,13.74,-3.178
83.248,-2.035,9.307,0.195
83.334,-1.055,6.718,1.097
83.42,0.907,6.365,2.078
83.506,-0.035,7.385,2.98
83.592,-0.819,13.622,3.726
83.678,1.181,18.682,-4.198
83.764,0.397,9.386,-1.688
83.85,1.064,9.268,0.509
83.936,-0.937,7.66,-0.432
84.022,-1.486,8.444,0.862
84.108,-0.858,9.268,1.097
84.194,-3.016,10.249,1.45
84.28,-2.271,16.76,-3.61
84.366,0.475,13.779,-3.178
84.452,-1.368,8.993,-0.158
84.538,-0.623,6.758,0.666
84.624,0.632,6.797,2.117
84.71,-0.545,6.091,3.961
84.796,-0.035,15.27,3.333
84.882,-2.859,16.682,-0.589
84.968,1.691,9.307,-1.178
85.054,0.514,9.425,-0.276
85.14,-0.113,8.327,-0.158
85.226,-1.957,7.738,0.744
85.312,-1.761,9.033,1.254
85.398,-2.192,10.837,0.234
85.484,-3.644,14.407,-1.099
85.57,-2.153,9.856,-5.257
85.656,0.358,11.857,-1.452
85.742,-2.231,7.66,0.274
85.828,0.044,6.64,1.058
85.914,-0.662,6.287,3.098
86.0,-1.055,13.74,1.843
86.086,-0.702,14.171,-0.668
86.172,4.359,7.777,-1.766
86.258,1.142,10.955,-0.197
86.344,0.161,8.915,0.038
86.43,-0.349,7.15,0.47
86.516,-1.682,8.405,0.901
86.602,-1.172,10.484,0.94
86.688,-2.506,14.877,-0.354
86.774,-3.644,9.856,-3.139
86.86,0.083,12.367,-1.609
86.946,-0.858,7.542,0.548
87.032,0.083,6.993,1.019
87.118,0.005,6.561,2.627
87.204,-0.152,12.602,1.803
87.29,-3.408,8.209,7.06
87.376,4.594,11.465,-2.158
87.462,-0.349,10.445,-1.57
87.548,1.221,7.699,-0.354
87.634,-0.858,7.346,0.94
87.72,-0.623,8.993,1.215
87.806,-0.662,9.974,0.98
87.892,-3.722,10.563,1.49
87.978,-1.447,15.505,-2.865
88.064,-0.074,10.327,-4.237
88.15,-0.584,8.758,-1.374
88.236,-1.408,6.64,2.039
88.322,0.044,6.875,2.627
88.408,-0.466,6.718,3.412
88.494,0.514,15.937,6.511
88.58,-0.035,15.897,2.549
88.666,0.161,8.719,-1.139
88.752,1.103,8.327,0.862
88.838,-0.898,8.209,-0.511
88.924,-1.329,7.699,1.372
89.01,-0.78,9.425,0.509
89.096,-3.526,10.053,2.706
89.182,-1.643,17.231,-3.218
89.268,0.083,12.72,-2.982
89.354,0.005,7.503,-0.472
89.44,-0.388,7.267,1.215
89.526,-0.113,7.228,2.51
89.612,-0.702,7.15,3.49
89.698,-0.505,16.054,5.687
89.784,2.554,12.916,2.47
89.87,-0.349,8.17,-0.511
89.956,0.358,7.464,0.077
90.042,0.161,9.386,-0.158
90.128,-2.467,8.719,0.627
90.214,-1.447,9.778,1.45
90.3,-2.388,10.131,1.45
90.386,-1.486,16.603,-4.434
90.472,0.005,12.759,-2.747
90.558,-1.408,8.954,-0.197
90.644,-0.152,6.718,0.313
90.73,0.789,7.307,1.843
90.816,-0.623,6.679,3.255
90.902,-0.035,15.27,3.843
90.988,0.318,17.741,0.94
91.074,2.005,8.758,-1.492
91.16,0.593,9.7,0.274
91.246,-0.035,8.954,0.313
91.332,-1.565,8.052,0.156
91.418,-1.643,8.954,1.176
91.504,-0.662,11.033,1.764
91.59,-2.467,11.857,-0.393
91.676,-2.781,10.837,-5.689
91.762,0.632,12.995,-0.55
91.848,-1.682,7.581,0.666
91.934,0.201,8.366,2.235
92.02,0.044,7.032,2.784
92.106,0.005,10.759,3.098
92.192,-0.819,10.876,6.707
92.278,3.888,11.033,1.019
92.364,-2.388,9.111,-1.335
92.45,2.123,9.268,0.234
92.536,-0.741,8.13,0.234
92.622,-2.428,8.797,1.529
92.708,-1.565,10.327,0.94
92.794,-2.114,10.719,2.117
92.88,-2.074,16.76,-4.394
92.966,2.201,11.818,-2.119
93.052,-1.486,8.68,-0.511
93.138,-0.309,7.738,1.294
93.224,-0.113,6.954,3.451
93.31,-1.29,6.64,3.255
93.396,0.593,14.25,6.55
93.482,-0.466,17.506,0.744
93.568,0.789,8.797,-0.197
93.654,-0.231,8.719,0.431
93.74,0.083,8.601,0.666
93.826,-2.31,8.837,1.568
93.912,-1.8,8.915,1.568
93.998,-2.035,10.131,-1.256
94.084,-2.114,14.917,-0.315
94.17,-3.094,10.602,-4.473
94.256,0.907,12.798,-0.589
94.342,-2.271,8.954,1.097
94.428,-0.152,6.836,1.882
94.514,-0.035,5.816,3.216
94.6,-1.212,14.407,3.216
94.686,-0.466,13.151,-1.452
94.772,3.3,8.405,-0.864
94.858,-0.309,9.7,-0.55
94.944,0.632,8.876,0.47
95.03,-1.408,8.209,0.587
95.116,-2.506,8.758,2.156
95.202,-0.035,10.445,-0.04
95.288,-3.369,12.328,0.077
95.374,-2.153,12.249,-4.708
95.46,1.338,13.034,0.274
95.546,-2.074,7.974,0.705
95.632,0.083,6.64,1.568
95.718,0.005,6.365,3.373
95.804,-1.447,12.406,2.274
95.89,0.201,11.386,7.766
95.976,3.731,9.817,0.313
96.062,-0.466,10.249,-1.099
96.148,0.711,8.13,0.195
96.234,0.083,8.64,0.156
96.32,-1.839,8.484,1.333
96.406,-1.761,9.739,1.725
96.492,-1.251,12.014,2.274
96.578,-1.996,14.485,-3.963
96.664,1.613,13.779,-0.158
96.75,-2.702,7.699,0.94
96.836,0.122,6.287,1.333
96.922,-0.27,7.189,3.608
97.008,-0.858,9.425,3.137
97.094,-0.192,13.426,7.217
97.18,4.476,11.426,0.156
97.266,-3.212,10.17,-0.786
97.352,1.181,7.856,-0.236
97.438,-0.623,9.582,0.391
97.524,-2.192,8.562,1.019
97.61,-1.604,10.131,1.137
97.696,-2.074,11.622,2.274
97.782,-4.271,12.798,-4.081
97.868,2.319,13.505,-0.354
97.954,-2.741,7.621,-0.001
98.04,0.044,6.444,1.333
98.126,-0.231,6.797,3.451
98.212,-1.251,10.131,2.51
98.298,-0.702,13.465,7.609
98.384,4.006,12.171,-0.746
98.47,-1.408,8.837,-1.413
98.556,0.828,7.934,0.156
98.642,-0.349,8.68,0.666
98.728,-2.388,8.719,0.94
98.814,-1.643,9.778,0.627
98.9,-2.781,10.288,1.411
98.986,-2.624,15.819,-3.531
99.072,2.084,11.7,-2.786
99.158,-0.78,7.503,-1.217
99.244,-0.192,8.013,1.686
99.33,-0.074,7.66,3.137
99.416,-0.505,6.993,3.216
99.502,0.005,15.466,7.06
99.588,0.044,14.446,2.588
99.674,0.083,9.111,-0.825
99.76,0.711,8.287,0.117
99.846,0.122,7.503,-0.197
99.932,-2.114,8.444,0.548
100.018,-1.565,9.464,1.568
100.104,-2.624,11.19,2.47
100.19,-2.388,15.387,-3.688
100.276,1.142,13.858,-0.982
100.362,-2.467,8.013,0.352
100.448,0.044,6.483,1.294
100.534,0.632,7.581,3.333
100.62,-0.937,7.346,3.647
100.706,-0.231,14.446,8.433
100.792,2.358,12.877,0.234
100.878,-1.015,8.64,-1.335
100.964,0.671,8.13,0.627
101.05,0.083,8.248,0.431
101.136,-2.035,9.346,0.784
101.222,-1.329,9.229,0.94
101.308,-2.506,10.406,0.94
101.394,-0.819,16.603,-2.982
101.48,-0.702,9.111,-1.923
101.566,-1.368,9.621,-0.472
101.652,-0.035,8.876,0.234
101.738,0.083,7.542,2.392
101.824,-0.231,5.11,3.647
101.91,-0.584,13.975,2.039
101.996,0.044,12.642,0.156
102.082,0.907,8.876,-0.236
102.168,-0.231,8.64,0.431
102.254,0.867,8.052,0.548
102.34,-1.839,8.405,0.509
102.426,-1.918,9.346,1.372
102.512,-3.094,9.15,0.627
102.598,-2.271,17.074,-2.629
102.684,1.103,10.445,-3.257
102.77,0.358,10.327,-0.511
102.856,-1.29,7.738,0.666
102.942,-0.192,7.581,2.666
103.028,-0.035,6.248,4.079
103.114,-1.055,16.525,2.98
103.2,-0.623,13.151,-0.315
103.286,2.005,7.934,-0.629
103.372,-0.662,8.484,0.274
103.458,1.064,7.934,0.195
103.544,-2.035,7.817,1.411
103.63,-1.565,9.19,2.0
103.716,-2.31,10.17,-0.119
103.802,-1.486,16.054,-1.57
103.888,-0.78,10.523,-4.237
103.974,0.005,10.327,-0.746
104.06,-1.094,8.484,0.234
104.146,0.436,6.718,2.353
104.232,-1.015,5.659,3.961
104.318,-1.408,15.78,2.823
104.404,0.946,18.016,-2.237
104.49,1.691,7.895,-0.236
104.576,0.397,8.601,0.077
104.662,0.75,8.405,0.195
104.748,-2.506,7.621,1.137
104.834,-1.604,9.346,1.686
104.92,-1.447,10.563,1.647
105.006,-1.251,15.427,-0.786
105.092,0.122,10.092,-2.825
105.178,-0.466,11.112,0.234
105.264,-0.662,8.013,0.901
105.35,0.358,6.522,2.0
105.436,-0.035,5.62,4.039
105.522,-1.212,17.976,5.412
105.608,-0.309,12.602,-2.119
105.694,2.397,8.444,-1.217
105.78,-0.584,9.15,0.352
105.866,0.985,8.837,-0.119
105.952,-1.878,7.974,1.176
106.038,-1.761,8.366,1.372
106.124,-1.839,10.759,0.862
106.21,-0.505,15.701,-1.492
106.296,-0.074,10.445,-2.982
106.382,-1.015,9.739,-0.589
106.468,-0.466,7.895,0.156
106.554,0.358,7.581,2.313
106.64,-0.427,5.581,3.765
106.726,-0.309,13.112,1.882
106.812,-0.78,16.486,0.195
106.898,2.75,7.346,-1.021
106.984,-0.623,9.15,-0.55
107.07,1.495,8.484,0.666
107.156,-2.349,7.777,0.901
107.242,-1.525,9.307,1.921
107.328,-0.937,11.229,-0.158
107.414,-1.682,13.975,-0.942
107.5,-1.721,10.445,-4.081
107.586,-0.035,12.053,0.117
107.672,-1.408,6.404,0.352
107.758,0.946,6.993,2.941
107.844,0.044,5.934,3.608
107.93,-0.662,12.485,1.333
108.016,-0.427,10.17,-0.942
108.102,3.3,9.7,-1.374
108.188,-1.643,9.464,-0.629
108.274,1.456,8.562,0.352
108.36,-1.408,8.248,0.627
108.446,-2.624,9.268,1.254
108.532,-1.329,10.484,0.234
108.618,-1.604,12.485,0.784
108.704,-4.585,11.622,-5.218
108.79,3.26,13.583,-0.982
108.876,-3.173,7.464,0.901
108.962,0.397,7.346,1.372
109.048,0.554,7.464,2.823
109.134,-1.251,9.7,2.784
109.22,-1.604,10.288,6.824
109.306,3.731,12.838,-1.57
109.392,-1.251,10.209,-0.982
109.478,0.75,9.856,0.47
109.564,-1.015,8.248,0.587
109.65,-2.074,8.013,1.097
109.736,-1.055,9.817,1.215
109.822,-2.663,12.288,1.843
109.908,-2.428,13.897,-2.041
109.994,0.554,13.348,-0.079
110.08,-2.271,8.248,1.49
110.166,0.436,6.758,1.882
110.252,0.24,7.189,3.608
110.338,-1.329,7.307,2.784
110.424,-0.662,12.092,8.747
110.51,0.946,15.701,0.391
110.596,-0.898,8.405,-0.746
110.682,1.024,8.64,0.117
110.768,0.083,8.091,0.784
110.854,-2.428,8.444,1.411
110.94,-1.643,9.033,1.058
111.026,-2.663,9.425,0.117
111.112,-0.231,15.387,-0.786
111.198,-0.819,10.641,-4.747
111.284,-1.761,12.916,0.98
111.37,-1.212,8.013,0.431
111.456,0.005,7.346,2.51
111.542,-0.349,5.542,3.373
111.628,-1.368,12.092,1.568
111.714,0.475,14.877,0.352
111.8,4.633,6.836,-0.786
111.886,-2.545,13.387,-0.393
111.972,0.514,7.974,1.294
112.058,-0.937,8.915,0.391
112.144,-2.074,8.954,1.137
112.23,-0.623,10.759,0.862
112.316,-2.624,9.268,1.176
112.402,-1.604,15.623,-2.041
112.488,-0.545,9.621,-3.688
112.574,-0.662,10.249,-0.982
112.66,-0.427,8.444,1.254
112.746,0.161,7.621,2.0
112.832,-0.035,6.404,3.176
112.918,-0.192,9.935,2.941
113.004,-0.858,9.111,7.06
113.09,4.751,12.995,-1.256
113.176,-1.721,8.327,-0.668
113.262,1.181,9.229,0.195
113.348,-0.623,8.444,0.509
113.434,-2.388,8.444,1.058
113.52,-0.623,9.268,1.137
113.606,-1.8,9.543,0.352
113.692,-1.565,15.191,-0.393
113.778,-1.839,11.935,-4.747
113.864,0.24,11.504,-1.178
113.95,-1.212,9.503,0.744
114.036,-0.074,7.817,0.47
114.122,-0.035,8.17,2.941
114.208,-0.937,7.66,2.431
114.294,-0.466,10.641,2.235
114.38,-0.858,11.112,0.705
114.466,3.613,14.171,-2.002
114.552,-2.781,7.346,-1.452
114.638,0.475,10.523,-0.825
114.724,-0.741,9.425,0.431
114.81,-1.839,9.739,-0.04
114.896,-0.466,10.563,0.117
114.982,-1.447,9.974,-0.354
115.068,-1.329,10.288,-0.393
115.154,-1.094,10.209,-0.629
115.24,-0.113,10.053,-0.276
115.326,-0.192,9.935,-0.079
