NAME:,walk_4_1.csv
EXPERIMENT TIME:,2023/05/22 08:35:15
ACTIVITY TYPE:,Walking
COUNT OF ACTUAL STEPS:,140

Time [sec],ACC X,ACC Y,ACC Z
0.0,1.01989,-8.8652,-4.5111
0.07100000000002638,0.784532,-9.8851,-5.2956
0.14200000000005275,-0.47072,-8.9437,-6.747
0.21299999999996544,0.23536,-8.2768,-5.7663
0.2839999999999918,-0.5884,-8.5906,-4.668
0.3550000000000182,-0.54917,-7.5707,-5.8055
0.42600000000004457,-1.3337,-7.6492,-5.9232
0.49699999999995725,-1.0199,-7.1,-6.1193
0.5679999999999836,0.980665,-11.023,-8.4729
0.63900000000001,1.84365,-12.121,-4.9818
0.7100000000000364,4.23647,-8.4337,-4.4718
0.7810000000000628,3.49117,-7.6884,-5.4525
0.8519999999999754,1.01989,-7.6884,-6.2763
0.9230000000000018,2.11824,-6.7862,-5.374
1.1359999999999673,0.11768,-7.8061,-7.5315
1.2069999999999936,0.313813,-12.356,-5.7663
1.27800000000002,6.7862,-10.905,-1.7652
1.3490000000000464,2.82432,-7.5707,-5.2171
1.419999999999959,1.1768,-9.5713,-4.7464
1.4909999999999854,-0.86299,-7.963,-4.3149
1.5620000000000118,0.431493,-6.8254,-4.4718
1.6330000000000382,-0.86299,-6.8647,-4.7464
1.7040000000000646,-1.4514,-6.9431,-6.0409
1.7749999999999773,0.588399,-8.3553,-4.5111
1.8460000000000036,5.6094,-15.455,-7.6492
1.91700000000003,3.0989,-10.513,-4.9426
1.9880000000000564,4.98178,-9.3752,-5.1387
2.058999999999969,0.627626,-6.237,-5.884
2.1299999999999955,3.0989,-4.9818,-4.9426
2.201000000000022,2.43205,-6.3939,-5.9624
2.272000000000048,-1.4514,-6.2763,-5.531
2.342999999999961,-1.1768,-7.9238,-6.6685
2.4139999999999873,0.431493,-14.828,-3.8834
2.4850000000000136,10.7873,-11.886,0.470719
2.55600000000004,0.902212,-10.905,-4.2365
2.6269999999999527,0.039227,-6.4332,-5.6486
2.697999999999979,-1.4122,-6.7862,-3.0989
2.7690000000000055,1.1768,-6.9431,-4.3149
2.840000000000032,-0.74531,-6.8254,-5.4525
2.911000000000058,-1.4514,-7.5707,-5.7271
2.981999999999971,1.45138,-10.395,-8.4337
3.0529999999999973,6.47239,-12.749,-2.3144
3.1240000000000236,5.64863,-11.533,-4.6287
3.19500000000005,2.15746,-8.4337,-6.3547
3.4080000000000155,-1.1768,-5.4917,-5.4133
3.479000000000042,0.313813,-5.2564,-5.8055
3.5499999999999545,0.23536,-11.336,-5.0602
3.620999999999981,6.70775,-13.298,-4.158
3.6920000000000073,1.96133,-12.631,-4.158
3.7630000000000337,0.23536,-7.6884,-6.4332
3.83400000000006,0.078453,-7.2177,-4.4326
3.9049999999999727,-0.19613,-7.2177,-5.021
3.975999999999999,0.196133,-5.884,-5.9232
4.0470000000000255,0.509946,-5.374,-6.237
4.118000000000052,3.21658,-7.9238,-6.1978
4.1889999999999645,9.37516,-14.161,-4.5111
4.259999999999991,7.3746,-12.043,-5.2171
4.331000000000017,2.03978,-9.2183,-5.7663
4.402000000000044,1.9221,-5.2564,-5.3348
4.472999999999956,2.86354,-5.7663,-4.9033
4.543999999999983,1.3337,-6.237,-6.0409
4.615000000000009,-0.43149,-4.5503,-5.884
4.6860000000000355,0.196133,-10.748,-5.374
4.757000000000062,6.08012,-13.886,-5.2171
4.8279999999999745,5.17791,-12.043,-3.5304
4.899000000000001,1.45138,-8.7475,-6.0801
4.970000000000027,0.196133,-6.8647,-4.6287
5.041000000000054,-0.66685,-6.9823,-4.2757
5.111999999999966,0.902212,-5.4917,-4.9818
5.182999999999993,0.039227,-6.1978,-6.5901
5.254000000000019,2.3536,-6.8647,-5.6486
5.3250000000000455,6.43316,-15.455,-7.2177
5.395999999999958,4.07957,-10.748,-4.4718
5.4669999999999845,3.60885,-9.4536,-5.1779
5.538000000000011,2.27514,-5.4133,-4.8641
5.609000000000037,1.68674,-6.1978,-5.4133
5.680000000000064,1.09834,-6.2763,-5.4525
5.750999999999976,-0.47072,-5.4133,-5.531
5.822000000000003,-1.216,-9.5713,-7.7669
5.893000000000029,2.00056,-15.377,-4.7072
5.9640000000000555,8.98289,-11.101,-2.7066
6.034999999999968,-0.98067,-9.7674,-6.7077
6.1059999999999945,-0.27459,-6.9039,-3.9619
6.177000000000021,-0.47072,-6.8254,-3.805
6.248000000000047,0.823759,-6.9431,-4.3542
6.31899999999996,-0.90221,-6.3155,-6.3547
6.389999999999986,0.078453,-8.0807,-6.0801
6.461000000000013,5.09946,-16.201,-8.7083
6.532000000000039,1.3337,-10.395,-4.0796
6.602999999999952,4.78565,-9.3752,-2.3536
6.816000000000031,0.353039,-6.6685,-5.374
6.887000000000057,0.980665,-7.2177,-4.7072
6.95799999999997,-0.82376,-9.5713,-6.4724
7.028999999999996,1.84365,-14.749,-3.8834
7.100000000000023,9.1398,-7.5315,-1.5691
7.171000000000049,0.313813,-10.474,-5.7271
7.241999999999962,1.21602,-6.8254,-3.5304
7.312999999999988,0.23536,-6.237,-3.7658
7.3840000000000146,-0.11768,-8.1984,-4.2365
7.455000000000041,0.196133,-6.3939,-6.0409
7.525999999999954,3.25581,-9.7282,-5.2171
7.59699999999998,2.03978,-12.984,-7.4531
7.668000000000006,0.078453,-9.689,-4.1972
7.739000000000033,4.74642,-9.1006,-2.1575
7.810000000000059,1.9221,-6.6685,-4.8249
7.880999999999972,2.07901,-5.531,-4.668
7.951999999999998,2.66741,-7.0608,-4.5895
8.023000000000025,0.196133,-6.0801,-6.1978
8.094000000000051,2.82432,-7.7669,-6.2763
8.164999999999964,-1.3337,-12.199,-5.2171
8.378000000000043,0.039227,-9.9636,-4.0403
8.448999999999955,0.509946,-6.6685,-4.2365
8.662000000000035,1.1768,-6.1586,-6.2763
8.733000000000061,1.88288,-9.5321,-4.7856
8.803999999999974,2.19669,-14.435,-6.7862
8.875,1.64752,-11.14,-4.5111
8.946000000000026,3.80498,-8.9829,-3.6873
9.017000000000053,2.03978,-6.1586,-5.021
9.087999999999965,1.13757,-7.0608,-4.5111
9.158999999999992,0.902212,-5.884,-5.4133
9.230000000000018,0.23536,-5.4133,-6.1978
9.301000000000045,0.431493,-9.179,-6.5508
9.371999999999957,1.13757,-14.435,-4.9426
9.442999999999984,9.33593,-10.042,-2.6282
9.51400000000001,-0.82376,-10.67,-6.0409
9.585000000000036,0.666852,-7.4531,-4.0796
9.656000000000063,-1.6083,-6.3155,-4.2365
9.726999999999975,0.23536,-7.2569,-3.9619
9.798000000000002,-0.47072,-5.6486,-5.8448
9.869000000000028,2.15746,-8.8652,-5.0602
9.940000000000055,1.7652,-14.357,-9.1398
10.010999999999967,1.56906,-10.003,-4.9033
10.081999999999994,6.1978,-8.7868,-2.8243
10.15300000000002,2.19669,-7.2961,-5.6486
10.224000000000046,0.353039,-6.3939,-4.7464
10.437000000000012,0.627626,-7.0216,-5.7663
10.508000000000038,0.313813,-10.983,-4.1188
10.579000000000065,7.72764,-12.513,-3.9227
10.649999999999977,3.64807,-10.827,-5.8448
10.721000000000004,1.09834,-9.179,-4.9426
10.79200000000003,0.470719,-6.8647,-4.4326
10.863000000000056,-1.1768,-6.2763,-4.4326
10.933999999999969,-0.5884,-5.7271,-5.0602
11.004999999999995,-0.07845,-7.7276,-6.5901
11.076000000000022,1.49061,-8.6299,-7.2569
11.147000000000048,7.45305,-14.357,-4.7072
11.217999999999961,7.17847,-10.591,-5.1779
11.288999999999987,2.23592,-9.4144,-6.0017
11.360000000000014,1.45138,-5.6879,-5.0995
11.43100000000004,2.942,-5.2171,-5.2564
11.501999999999953,0.11768,-5.7271,-6.1193
11.572999999999979,-0.11768,-5.6879,-5.6486
11.644000000000005,-1.8044,-8.4337,-6.2763
11.715000000000032,1.9221,-15.534,-6.5508
11.786000000000058,7.92377,-14.592,-1.7652
11.856999999999971,0.078453,-8.3945,-7.61
11.927999999999997,-1.9221,-7.4138,-4.2365
11.999000000000024,0.627626,-6.0017,-4.3934
12.07000000000005,-0.27459,-5.9624,-5.3348
12.140999999999963,-0.66685,-5.2564,-5.4525
12.354000000000042,3.76575,-15.181,-1.7652
12.424999999999955,5.29559,-10.003,-4.6287
12.495999999999981,1.37293,-7.8845,-4.7856
12.567000000000007,1.45138,-5.374,-4.5895
12.638000000000034,2.07901,-5.374,-5.884
12.70900000000006,-1.0983,-5.9232,-4.8641
12.779999999999973,-1.216,-6.5901,-6.237
12.850999999999999,1.41216,-13.572,-2.7459
12.922000000000025,10.9834,-11.964,-2.5105
12.993000000000052,-0.82376,-10.67,-6.3939
13.063999999999965,0.23536,-6.5508,-4.8641
13.134999999999991,-1.8437,-6.5116,-4.158
13.206000000000017,0.666852,-7.0216,-3.7265
13.277000000000044,-1.0199,-5.7271,-5.374
13.347999999999956,0.902212,-7.9238,-5.021
13.418999999999983,-1.8829,-11.611,-9.6497
13.490000000000009,9.1398,-14.396,-0.86299
13.561000000000035,4.2757,-11.846,-5.9624
13.632000000000062,1.72597,-7.8061,-5.2171
13.702999999999975,1.56906,-4.1188,-4.5895
13.774000000000001,2.3536,-6.747,-5.4133
13.986999999999966,0.078453,-12.121,-4.668
14.057999999999993,6.86466,-13.925,-1.6083
14.129000000000019,2.66741,-10.513,-5.0602
14.200000000000045,0.588399,-7.4923,-5.2171
14.270999999999958,-1.726,-7.1785,-3.6481
14.341999999999985,0.313813,-5.9232,-4.5503
14.413000000000011,-0.94144,-6.237,-4.668
14.484000000000037,-0.35304,-7.4138,-6.0801
14.555000000000064,-1.6475,-8.8652,-5.7663
14.625999999999976,14.2393,-15.612,-4.9426
14.697000000000003,3.60885,-13.572,-5.374
14.768000000000029,1.80442,-9.689,-5.4525
14.839000000000055,2.11824,-3.9227,-5.2171
14.909999999999968,1.56906,-6.9431,-4.3934
14.980999999999995,-0.82376,-5.8448,-5.4917
15.052000000000021,0.980665,-5.0995,-5.4525
15.123000000000047,-1.726,-11.493,-4.5895
15.19399999999996,6.00167,-12.67,-4.0011
15.264999999999986,1.37293,-13.259,-4.6287
15.336000000000013,0.470719,-7.5315,-5.6094
15.407000000000039,-2.3536,-6.5901,-3.6481
15.477999999999952,0.588399,-6.1586,-3.8442
15.548999999999978,-0.5884,-6.0017,-5.2564
15.620000000000005,0.039227,-6.5116,-5.8055
15.691000000000031,-2.1967,-9.1398,-6.6293
15.762000000000057,15.063,-18.24,-2.589
15.83299999999997,4.35415,-12.709,-8.9437
15.903999999999996,4.00111,-9.0613,-5.374
15.975000000000023,0.11768,-4.9818,-5.0602
16.04600000000005,1.9221,-6.3155,-4.2365
16.116999999999962,-0.31381,-5.4133,-5.7663
16.187999999999988,-1.216,-5.884,-6.0409
16.259000000000015,-0.74531,-11.18,-3.8834
16.33000000000004,5.53095,-12.513,-6.0409
16.400999999999954,5.53095,-12.435,-4.2365
16.47199999999998,1.25525,-7.5315,-6.3547
16.543000000000006,-0.82376,-7.3354,-4.2757
16.614000000000033,-0.47072,-6.6685,-4.5503
16.68500000000006,-1.0983,-6.2763,-5.6486
16.755999999999972,0.470719,-5.8448,-6.6293
16.826999999999998,1.45138,-8.1591,-6.3547
16.898000000000025,11.6111,-16.671,-5.2564
16.96900000000005,2.62818,-11.297,-5.7271
17.039999999999964,2.74586,-9.2967,-5.2564
17.11099999999999,1.80442,-5.2956,-4.7072
17.182000000000016,2.19669,-4.7856,-5.4917
17.253000000000043,1.13757,-6.237,-6.237
17.323999999999955,-0.74531,-5.2956,-5.4133
17.394999999999982,-3.1774,-8.1591,-7.61
17.466000000000008,5.13869,-15.848,-3.7265
17.537000000000035,8.74753,-12.709,-1.5691
17.60800000000006,-0.98067,-8.1199,-7.2961
17.678999999999974,-0.70608,-7.0216,-4.5895
17.892000000000053,-0.31381,-5.4917,-5.9232
17.962999999999965,2.78509,-6.5901,-5.1779
18.033999999999992,4.07957,-17.064,-9.4536
18.105000000000018,3.33426,-12.906,-4.0011
18.176000000000045,2.62818,-10.67,-5.4525
18.246999999999957,1.68674,-5.2171,-4.7856
18.317999999999984,2.78509,-4.3542,-4.8249
18.38900000000001,0.353039,-6.4724,-5.4525
18.460000000000036,-1.8829,-5.3348,-5.3348
18.531000000000063,-1.4514,-9.4928,-5.9232
18.601999999999975,3.25581,-14.239,-5.4917
18.673000000000002,9.41438,-13.415,-1.6083
18.744000000000028,-1.0591,-8.1199,-7.2961
18.815000000000055,-1.4122,-7.4531,-3.1774
18.885999999999967,0.392266,-5.6094,-4.2365
18.956999999999994,-1.3337,-5.5702,-5.0602
19.16999999999996,7.88455,-14.828,-4.4326
19.240999999999985,6.82543,-12.67,-5.6879
19.312000000000012,1.64752,-9.4536,-6.237
19.383000000000038,1.37293,-5.4917,-4.6287
19.454000000000065,1.88288,-4.9033,-5.1387
19.524999999999977,0.23536,-5.9624,-5.7663
19.596000000000004,-1.216,-4.9818,-5.6486
19.66700000000003,-1.6475,-9.7282,-7.4138
19.738000000000056,9.41438,-16.318,-0.47072
19.80899999999997,3.17735,-10.513,-5.2171
19.879999999999995,0.980665,-7.7276,-6.3547
19.951000000000022,-0.86299,-7.2569,-3.4912
20.022000000000048,0.156906,-5.7663,-4.4718
20.09299999999996,-1.6475,-5.5702,-4.9818
20.163999999999987,0.392266,-7.4531,-6.3155
20.235000000000014,0,-8.7083,-7.6492
20.30600000000004,11.0227,-16.475,-4.2365
20.376999999999953,7.49228,-12.278,-5.3348
20.44799999999998,1.01989,-8.5122,-5.8448
20.519000000000005,2.07901,-4.8641,-4.7464
20.590000000000032,2.27514,-4.9426,-5.5702
20.661000000000058,-0.5884,-5.8055,-5.8055
20.73199999999997,-0.43149,-6.5116,-5.5702
20.802999999999997,-1.2945,-9.689,-6.4724
20.874000000000024,11.0227,-14.514,-0.62763
20.94500000000005,1.52984,-11.101,-6.4724
21.015999999999963,0.941438,-7.7669,-5.9624
21.08699999999999,-1.216,-6.7862,-4.1188
21.158000000000015,0.196133,-6.0409,-4.4718
21.229000000000042,-0.86299,-5.4917,-5.021
21.299999999999955,0.588399,-7.7669,-6.4332
21.37099999999998,2.19669,-10.434,-9.6497
21.442000000000007,6.00167,-14.082,-4.8641
21.513000000000034,7.60996,-10.16,-4.2365
21.726,2.47128,-5.0995,-5.7271
21.797000000000025,-0.54917,-5.884,-5.9232
21.868000000000052,-0.07845,-6.1193,-6.6685
21.938999999999965,0.745305,-14.396,-3.6481
22.00999999999999,10.8265,-11.572,-1.0983
22.081000000000017,-0.31381,-10.787,-5.2956
22.152000000000044,1.9221,-7.3746,-4.4718
22.222999999999956,-0.50995,-5.884,-4.158
22.293999999999983,-1.1768,-6.7077,-4.8641
22.36500000000001,-0.11768,-5.9624,-4.7464
22.436000000000035,0.078453,-7.6884,-6.0801
22.507000000000062,-0.82376,-8.6299,-7.8061
22.577999999999975,9.76742,-18.162,-4.6287
22.649,6.90388,-12.16,-4.0011
22.720000000000027,1.84365,-7.6492,-5.9232
22.791000000000054,2.07901,-4.9426,-4.3542
22.861999999999966,2.31437,-5.8448,-5.1779
22.932999999999993,-1.0591,-6.4724,-6.1978
23.00400000000002,-0.47072,-5.6486,-5.531
23.075000000000045,-0.78453,-9.179,-4.5503
23.145999999999958,2.58896,-14.2,-5.4133
23.216999999999985,8.51217,-13.612,-1.3337
23.28800000000001,-0.31381,-7.8061,-6.9823
23.359000000000037,-2.0006,-7.3354,-3.9227
23.430000000000064,0.313813,-6.5901,-4.158
23.500999999999976,-0.35304,-6.4332,-5.3348
23.572000000000003,-1.1376,-5.7271,-6.3547
23.64300000000003,2.62818,-6.9431,-5.2956
23.714000000000055,-0.78453,-14.278,-9.0613
23.784999999999968,3.72653,-11.023,-0.15691
23.855999999999995,3.37349,-10.395,-5.2956
23.92700000000002,1.9221,-5.8448,-5.1387
23.998000000000047,1.96133,-5.2564,-5.7271
24.06899999999996,0.666852,-6.6293,-5.8055
24.139999999999986,-0.47072,-5.2956,-4.7856
24.211000000000013,-1.6083,-8.5122,-7.4138
24.28200000000004,4.07957,-13.965,-4.5111
24.56600000000003,-0.15691,-6.4724,-3.4519
24.637000000000057,0.431493,-6.3155,-5.1387
24.70799999999997,-1.1376,-5.4133,-5.6879
24.778999999999996,1.80442,-7.61,-5.9232
24.850000000000023,0.862985,-13.612,-10.591
24.92100000000005,4.90333,-15.024,-2.0398
24.991999999999962,3.21658,-10.199,-5.6879
25.062999999999988,1.68674,-6.1193,-4.9818
25.134000000000015,2.82432,-4.9426,-4.668
25.20500000000004,1.09834,-6.3547,-6.1586
25.275999999999954,-1.8829,-5.884,-5.3348
25.34699999999998,0.156906,-9.4144,-7.2569
25.418000000000006,2.39282,-14.239,-5.3348
25.489000000000033,9.25748,-13.415,-0.23536
25.56000000000006,-1.0199,-10.63,-7.1785
25.630999999999972,0.23536,-7.4923,-4.1972
25.701999999999998,-1.4122,-6.4332,-4.0011
25.773000000000025,-0.07845,-5.8055,-4.7464
25.84400000000005,-0.07845,-5.1779,-5.4917
25.914999999999964,-0.5884,-7.6492,-5.7663
25.98599999999999,3.64807,-14.906,-9.7282
26.057000000000016,2.11824,-14.278,-4.9426
26.128000000000043,4.15802,-9.2967,-4.0011
26.198999999999955,0.470719,-6.8254,-4.9426
26.269999999999982,2.3536,-4.8641,-4.2365
26.341000000000008,2.31437,-5.4917,-6.1193
26.412000000000035,-0.94144,-6.1978,-6.0409
26.48300000000006,-0.98067,-7.4138,-7.4138
26.553999999999974,1.60829,-12.592,-5.4525
26.625,9.68897,-13.572,-1.3729
26.696000000000026,-0.23536,-10.787,-7.1
26.767000000000053,-0.07845,-7.4531,-5.0995
26.837999999999965,-0.70608,-6.1586,-4.158
26.908999999999992,-0.27459,-6.1978,-4.2757
26.980000000000018,-1.1768,-5.4133,-4.9033
27.051000000000045,-1.0591,-7.6884,-5.8448
27.121999999999957,-0.90221,-10.12,-8.6299
27.192999999999984,10.3166,-16.122,-4.5503
27.26400000000001,3.96189,-10.709,-5.5702
27.335000000000036,0.313813,-7.4138,-5.2171
27.406000000000063,2.31437,-4.9818,-4.3542
27.476999999999975,1.29448,-5.2564,-5.6879
27.548000000000002,-1.3729,-5.8055,-5.8055
27.619000000000028,-2.1182,-7.6884,-7.2961
27.690000000000055,1.01989,-13.494,-5.0995
27.760999999999967,12.4348,-13.651,0.392266
27.831999999999994,-0.90221,-11.14,-7.0608
27.90300000000002,-0.47072,-7.61,-4.5111
27.974000000000046,-1.0199,-5.4133,-4.1188
28.04499999999996,-0.31381,-6.237,-4.4326
28.115999999999985,-1.0199,-5.6094,-5.2564
28.187000000000012,0.941438,-7.5315,-5.9624
28.258000000000038,0.313813,-12.513,-10.003
28.329000000000065,3.49117,-14.122,-3.3735
28.399999999999977,5.06023,-10.081,-5.0602
28.471000000000004,0.666852,-6.8647,-4.5503
28.54200000000003,2.11824,-4.668,-4.4718
28.613000000000056,2.03978,-5.4133,-5.6094
28.68399999999997,-0.54917,-5.4917,-5.6486
28.754999999999995,-1.1376,-7.7669,-7.5707
28.826000000000022,0.627626,-14.239,-7.1
29.038999999999987,-0.31381,-7.9238,-3.9619
29.110000000000014,0.549172,-5.7663,-4.158
29.18100000000004,-1.2945,-6.3939,-4.9033
29.251999999999953,-0.70608,-5.1387,-5.1779
29.32299999999998,-0.27459,-7.5315,-6.0017
29.394000000000005,0.549172,-10.434,-9.7282
29.465000000000032,7.25692,-15.22,-4.1972
29.536000000000058,8.15913,-10.277,-3.9619
29.82000000000005,-0.78453,-5.884,-5.8055
29.890999999999963,-0.15691,-6.3155,-6.5901
29.96199999999999,0,-10.042,-6.7077
30.033000000000015,10.8265,-16.161,2.98122
30.104000000000042,0.392266,-11.533,-7.4138
30.174999999999955,0.353039,-7.4531,-4.8641
30.24599999999998,-0.23536,-6.3547,-3.805
30.317000000000007,-0.23536,-6.8254,-4.3542
30.388000000000034,-0.66685,-6.1586,-5.3348
30.45900000000006,-1.1768,-7.3746,-6.5901
30.529999999999973,1.84365,-7.8061,-6.9823
30.743000000000052,2.27514,-9.3359,-6.1193
30.813999999999965,1.1768,-5.3348,-5.6879
30.88499999999999,1.68674,-6.1586,-5.3348
30.956000000000017,0,-6.0409,-6.0801
31.027000000000044,0.588399,-5.0602,-5.021
31.097999999999956,-1.5691,-9.0221,-7.2177
31.168999999999983,7.29615,-15.495,-2.5105
31.24000000000001,3.37349,-11.846,-5.7271
31.311000000000035,0.353039,-7.5707,-5.5702
31.382000000000062,-0.50995,-6.4332,-4.158
31.452999999999975,-0.82376,-6.8254,-4.158
31.524,0.784532,-6.4724,-5.021
31.595000000000027,-0.78453,-5.8055,-5.884
31.666000000000054,3.41271,-6.9823,-5.0602
31.736999999999966,2.70664,-16.671,-8.4729
31.807999999999993,1.7652,-11.415,-4.5111
31.87900000000002,3.25581,-9.2575,-4.5895
31.950000000000045,1.49061,-6.237,-5.2171
32.02099999999996,1.41216,-5.2171,-4.668
32.091999999999985,1.05912,-5.9624,-5.8448
32.16300000000001,-0.90221,-5.1387,-5.0995
32.23400000000004,-0.74531,-7.9238,-7.8061
32.305000000000064,2.31437,-16.632,-3.8442
32.375999999999976,10.9834,-14.592,-0.39227
32.447,-1.6475,-8.5906,-6.5508
32.65999999999997,0.274586,-6.8254,-4.7856
32.730999999999995,-0.35304,-5.4917,-5.4917
32.80200000000002,0.156906,-7.8061,-5.9232
32.87300000000005,-1.0983,-13.141,-10.356
32.94399999999996,4.74642,-14.239,-0.82376
33.014999999999986,4.2757,-10.787,-5.3348
33.08600000000001,1.1768,-7.2177,-4.7856
33.15700000000004,1.88288,-5.0995,-4.668
33.22799999999995,0.862985,-6.3155,-5.7663
33.29899999999998,-1.6867,-6.3547,-4.7464
33.370000000000005,-0.82376,-7.4138,-7.3354
33.44100000000003,0.784532,-12.082,-4.4326
33.51200000000006,10.6696,-14.161,0.706079
33.58299999999997,0.666852,-11.023,-5.7271
33.653999999999996,-0.07845,-7.5315,-5.4525
33.72500000000002,-1.4514,-6.9431,-3.6481
33.79600000000005,-0.43149,-6.3155,-4.0011
33.86699999999996,-0.66685,-5.4525,-4.4718
33.93799999999999,-1.6083,-7.7669,-5.6879
34.009000000000015,0.078453,-9.8067,-8.0415
34.08000000000004,9.57129,-16.554,-3.6873
34.150999999999954,6.70775,-10.63,-5.6486
34.22199999999998,0.706079,-8.3945,-5.1387
34.293000000000006,1.49061,-5.1387,-4.3934
34.36400000000003,1.96133,-5.2564,-5.7663
34.43500000000006,0.11768,-6.2763,-5.8055
34.50599999999997,-1.0199,-4.8249,-5.531
34.577,-2.3144,-8.4729,-5.1387
34.648000000000025,6.51162,-16.946,-2.3536
34.71900000000005,3.84421,-12.709,-4.8641
34.789999999999964,0.156906,-8.9044,-7.1392
34.86099999999999,-0.27459,-6.7077,-4.8641
35.14599999999996,2.62818,-6.2763,-5.4917
35.216999999999985,5.41327,-16.514,-7.8845
35.28800000000001,3.84421,-12.749,-4.0796
35.35900000000004,1.7652,-9.9243,-5.8055
35.430000000000064,1.72597,-5.0995,-4.6287
35.500999999999976,0.980665,-5.6486,-6.0801
35.572,0.274586,-6.5901,-5.4525
35.64300000000003,-0.70608,-4.3542,-5.0995
35.714000000000055,-1.8437,-7.61,-6.7862
35.78499999999997,7.76687,-17.456,-0.94144
35.855999999999995,4.62874,-12.827,-5.374
35.92700000000002,0.039227,-8.4729,-5.1779
35.99800000000005,-0.31381,-6.6685,-4.0796
36.06899999999996,-0.19613,-5.9624,-3.805
36.139999999999986,0.392266,-6.9039,-4.7072
36.21100000000001,-0.70608,-5.8055,-5.6879
36.28200000000004,3.49117,-8.6299,-5.021
36.35299999999995,9.68897,-15.612,-5.0602
36.42399999999998,4.90333,-12.67,-5.5702
36.63700000000006,2.03978,-6.9823,-4.0403
36.70799999999997,0.11768,-6.0801,-5.9232
36.778999999999996,0.11768,-5.0602,-5.884
36.85000000000002,-0.31381,-8.8652,-7.3746
36.92100000000005,3.45194,-16.201,-3.805
36.99199999999996,7.80609,-11.846,-3.5304
37.06299999999999,-0.66685,-9.5713,-6.3939
37.134000000000015,-0.35304,-6.7862,-4.2757
37.20500000000004,-0.50995,-7.1,-3.6481
37.275999999999954,-0.35304,-6.6293,-4.7856
37.34699999999998,-1.726,-5.1779,-5.1387
37.418000000000006,2.5105,-7.8845,-5.5702
37.48900000000003,4.47183,-19.299,-6.2763
37.56000000000006,2.23592,-11.69,-6.8647
37.63099999999997,3.33426,-9.1398,-3.805
37.702,3.37349,-5.6094,-5.0602
37.773000000000025,1.52984,-5.021,-5.374
37.84400000000005,0.745305,-6.747,-5.2171
37.914999999999964,-1.0591,-4.8641,-6.0017
37.98599999999999,0,-7.4138,-8.2376
38.057000000000016,0,-14.985,-3.5304
38.12800000000004,9.06135,-10.63,-0.86299
38.198999999999955,0.431493,-12.317,-6.3939
38.26999999999998,1.21602,-7.3746,-4.9033
38.34100000000001,-1.4906,-6.8254,-4.9033
38.412000000000035,-0.11768,-6.1978,-5.1387
38.48300000000006,-0.23536,-5.1779,-5.1387
38.553999999999974,0.470719,-7.6884,-5.5702
38.625,2.03978,-14.632,-10.905
38.696000000000026,3.49117,-12.435,-3.6873
38.76700000000005,4.11879,-10.081,-4.9033
38.837999999999965,0.823759,-6.747,-5.021
38.90899999999999,2.07901,-4.9818,-5.4133
38.98000000000002,2.5105,-5.884,-5.5702
39.051000000000045,-1.2553,-6.0801,-5.4525
39.12199999999996,-1.0199,-7.9238,-8.1199
39.192999999999984,2.54973,-14.788,-3.4127
39.26400000000001,10.7873,-11.69,-0.03923
39.335000000000036,-1.216,-11.572,-6.9039
39.40600000000006,0.549172,-7.6492,-4.7856
39.476999999999975,-0.66685,-5.884,-3.9619
39.548,0,-6.4724,-4.4718
39.61900000000003,0,-6.2763,-5.531
39.690000000000055,0.353039,-7.6492,-6.0801
39.76099999999997,-2.3536,-8.9829,-8.5122
39.831999999999994,18.7111,-20.006,-0.90221
39.90300000000002,2.98122,-11.533,-6.5116
39.974000000000046,1.49061,-6.6293,-5.4525
40.04499999999996,2.23592,-5.0602,-4.8641
40.115999999999985,2.54973,-5.9624,-5.2171
40.329000000000065,-0.54917,-10.591,-4.9818
40.39999999999998,7.53151,-14.632,-1.4906
40.471000000000004,2.11824,-11.886,-5.4917
40.54200000000003,-0.47072,-8.3945,-5.6879
40.613000000000056,-1.1376,-6.7862,-3.8442
40.68399999999997,-0.35304,-5.9624,-4.3934
40.754999999999995,-0.82376,-6.237,-5.2171
40.82600000000002,-0.54917,-7.0608,-6.6293
40.89700000000005,0.862985,-8.0807,-6.237
40.96799999999996,9.57129,-16.357,-5.6486
41.03899999999999,6.15858,-11.729,-6.8647
41.110000000000014,1.01989,-9.2575,-5.8448
41.18100000000004,2.11824,-5.3348,-4.8641
41.25199999999995,2.82432,-5.6486,-5.4133
41.32299999999998,0.039227,-6.2763,-5.8055
41.394000000000005,0.039227,-4.8641,-5.2956
41.46500000000003,-1.4514,-7.8061,-6.9431
41.53600000000006,4.8641,-15.495,-1.9613
41.60699999999997,4.19725,-12.474,-4.4326
41.678,0.470719,-9.9243,-4.9426
41.749000000000024,-0.15691,-6.3939,-4.1972
41.82000000000005,-1.0199,-5.3348,-4.5111
41.89099999999996,-0.66685,-6.0409,-4.7856
41.96199999999999,-0.07845,-5.4917,-5.4917
42.174999999999955,4.70719,-11.18,-2.2751
42.24599999999998,0.823759,-10.317,-7.1785
42.31700000000001,3.41271,-5.2564,-5.021
42.388000000000034,2.47128,-5.9232,-4.5503
42.45900000000006,-0.35304,-4.4326,-5.884
42.52999999999997,-0.07845,-5.5702,-5.1779
42.601,-0.47072,-8.1199,-7.963
42.672000000000025,-0.03923,-16.357,-6.0801
42.74300000000005,11.6895,-12.239,0.039227
42.813999999999965,0.353039,-9.8067,-5.6094
42.88499999999999,1.37293,-6.9039,-4.8249
42.95600000000002,0.039227,-6.0017,-4.7856
43.027000000000044,-0.07845,-6.5116,-5.0995
43.097999999999956,0.078453,-5.884,-5.4525
43.16899999999998,-0.07845,-7.3354,-6.4332
43.24000000000001,1.09834,-8.1591,-7.5707
43.311000000000035,6.0409,-16.122,-5.374
43.38200000000006,7.92377,-10.16,-5.884
43.452999999999975,0.941438,-8.5514,-5.884
43.524,1.09834,-5.9232,-4.7464
43.59500000000003,2.31437,-5.4133,-5.9624
43.666000000000054,0.666852,-5.3348,-6.0017
43.736999999999966,-0.43149,-4.9818,-5.1779
43.80799999999999,-2.589,-7.61,-7.2961
43.87900000000002,2.19669,-15.926,-9.5321
43.950000000000045,5.6094,-14.475,-1.4514
44.02099999999996,-1.8829,-7.8845,-8.2768
44.091999999999985,-1.3729,-7.0608,-4.4326
44.16300000000001,-0.11768,-6.237,-3.3343
44.23400000000004,-1.9613,-6.1978,-4.8641
44.305000000000064,-0.66685,-5.0995,-5.6879
44.375999999999976,2.43205,-7.3354,-5.1779
44.447,6.59007,-16.475,-6.237
44.51800000000003,4.98178,-14.043,-5.1779
44.589000000000055,1.68674,-11.258,-6.3939
44.65999999999997,2.19669,-5.9232,-5.1779
44.730999999999995,2.47128,-5.021,-4.9426
44.80200000000002,0.980665,-5.531,-4.5503
44.87300000000005,-0.23536,-4.5895,-3.7265
44.94399999999996,-2.079,-7.963,-9.0221
45.014999999999986,2.15746,-16.985,-5.0995
45.08600000000001,8.31604,-14.2,-3.7658
45.15700000000004,0.313813,-10.67,-6.7077
45.22799999999995,-1.6475,-7.9238,-4.6287
45.29899999999998,-1.3337,-5.6879,-3.7658
45.370000000000005,-0.35304,-5.4133,-4.158
45.58299999999997,5.4525,-19.025,-10.199
45.653999999999996,2.3536,-11.101,-4.9033
45.72500000000002,2.31437,-10.983,-6.4332
45.79600000000005,1.7652,-6.9431,-5.021
45.86699999999996,1.21602,-5.374,-4.7856
45.93799999999999,0.549172,-4.9818,-4.7856
46.009000000000015,-0.39227,-4.9426,-4.3934
46.08000000000004,-2.5105,-6.9431,-7.61
46.150999999999954,1.25525,-16.122,-9.4144
46.22199999999998,12.0818,-14.082,3.80498
46.293000000000006,-1.7652,-8.6299,-8.6299
46.36400000000003,-1.6475,-9.5713,-2.942
46.43500000000006,-0.78453,-5.7271,-4.2365
46.50599999999997,-1.4906,-4.8641,-4.158
46.577,-2.589,-4.3149,-4.0011
46.648000000000025,2.90277,-7.2569,-4.7464
46.71900000000005,7.29615,-18.397,-5.2171
46.789999999999964,7.02156,-12.749,-4.9426
46.86099999999999,1.68674,-9.689,-6.0801
46.932000000000016,2.70664,-5.9624,-4.0796
47.00300000000004,1.37293,-4.3934,-4.7856
47.073999999999955,1.52984,-4.8641,-5.4133
47.14499999999998,-0.39227,-4.8641,-5.4525
47.21600000000001,-2.8635,-9.2575,-4.0403
47.287000000000035,7.88455,-15.298,-2.4713
47.5,-0.5884,-6.1193,-4.0403
47.571000000000026,-0.78453,-6.1978,-3.9227
47.64200000000005,-0.07845,-6.3939,-4.5503
47.712999999999965,-0.27459,-5.8055,-5.6879
47.78399999999999,2.66741,-6.0409,-6.1978
47.85500000000002,8.74753,-15.965,-4.668
47.926000000000045,6.55084,-14.514,-4.2365
47.99699999999996,1.21602,-9.7282,-6.3547
48.067999999999984,3.13813,-4.158,-4.2365
48.13900000000001,2.03978,-6.7862,-4.1972
48.210000000000036,0.196133,-5.6094,-5.4525
48.28100000000006,0.11768,-4.5503,-5.4917
48.351999999999975,-1.4514,-8.6691,-5.1387
48.423,4.70719,-15.808,-4.3934
48.49400000000003,8.39449,-13.886,-1.8044
48.565000000000055,-0.11768,-9.6497,-6.237
48.63599999999997,-0.15691,-7.1785,-4.0011
48.706999999999994,-0.31381,-6.7862,-4.3542
48.77800000000002,0.392266,-6.5116,-4.668
48.849000000000046,-0.27459,-5.1387,-5.4133
48.91999999999996,2.82432,-6.6685,-5.021
48.990999999999985,1.9221,-14.318,-11.336
49.06200000000001,2.98122,-11.65,-0.50995
49.13300000000004,1.96133,-10.748,-5.531
49.204000000000065,2.86354,-6.1586,-5.3348
49.27499999999998,2.19669,-3.0989,-5.021
49.346000000000004,1.9221,-8.6299,-4.3934
49.41700000000003,-1.1768,-4.7072,-4.8641
49.629999999999995,10.7481,-13.572,3.13813
49.70100000000002,0.470719,-9.4928,-7.0608
49.77200000000005,-0.62763,-6.8647,-4.1972
49.84299999999996,-0.86299,-6.747,-3.5304
49.91399999999999,1.45138,-6.2763,-4.3934
49.985000000000014,-0.66685,-5.374,-5.1779
50.05600000000004,1.3337,-7.5315,-6.0801
50.12699999999995,0.509946,-11.807,-9.4536
50.19799999999998,6.23703,-15.651,0.23536
50.269000000000005,4.98178,-11.846,-7.5707
50.34000000000003,3.80498,-6.9431,-5.6094
50.41100000000006,1.64752,-6.237,-4.4326
50.48199999999997,0.549172,-6.4332,-4.4326
50.553,-0.03923,-5.6879,-5.0995
50.624000000000024,0.549172,-7.1392,-7.4531
50.908000000000015,-0.11768,-7.61,-5.5702
50.97900000000004,-0.54917,-7.9238,-3.5696
51.19200000000001,-0.70608,-7.61,-5.9624
51.263000000000034,-1.2945,-9.3752,-8.3945
51.33400000000006,9.25748,-14.475,-2.7459
51.40499999999997,4.70719,-11.69,-4.8641
51.476,2.11824,-8.8652,-5.1779
51.547000000000025,1.88288,-4.4718,-4.7072
51.61800000000005,2.58896,-6.9823,-4.668
51.688999999999965,-0.98067,-6.237,-5.8448
51.75999999999999,-0.78453,-5.4133,-5.6486
51.83100000000002,-0.5884,-10.081,-3.6481
51.902000000000044,3.88343,-14.906,-3.2166
51.972999999999956,7.29615,-10.983,-3.2166
52.04399999999998,-0.86299,-10.827,-5.5702
52.11500000000001,0.588399,-6.747,-4.158
52.186000000000035,-1.0591,-6.1586,-4.7856
52.25700000000006,-0.27459,-7.1785,-4.5503
52.327999999999975,-0.39227,-5.5702,-5.2956
52.399,2.47128,-8.2376,-4.3542
52.47000000000003,-0.39227,-12.631,-9.2183
52.541000000000054,5.02101,-13.808,-3.5304
52.611999999999966,4.74642,-9.2967,-4.0796
52.68299999999999,2.47128,-7.7276,-6.1193
52.75400000000002,1.09834,-5.7271,-4.8641
52.825000000000045,2.31437,-7.1,-5.021
52.89599999999996,-0.03923,-5.1779,-6.1586
52.966999999999985,-0.11768,-6.0801,-6.0409
53.03800000000001,0.784532,-9.4536,-4.3934
53.10900000000004,6.23703,-13.415,-2.8635
53.180000000000064,4.66797,-11.062,-4.8641
53.250999999999976,-0.78453,-8.316,-5.1779
53.322,-0.78453,-7.4138,-4.158
53.39300000000003,-0.86299,-6.3939,-4.2757
53.464000000000055,-0.62763,-6.237,-5.0995
53.53499999999997,-0.74531,-6.8647,-6.237
53.605999999999995,1.3337,-8.316,-7.2961
53.67700000000002,7.06079,-15.769,-5.8448
53.74800000000005,5.13869,-11.729,-3.7265
53.81899999999996,1.96133,-9.9636,-5.2956
53.889999999999986,3.0989,-5.531,-4.9426
53.96100000000001,2.11824,-5.0995,-5.0995
54.03200000000004,-1.4906,-6.9431,-5.8448
54.10299999999995,-1.216,-5.0602,-4.8641
54.17399999999998,-1.8829,-9.1006,-6.237
54.245000000000005,5.06023,-13.769,-3.4127
54.31600000000003,7.29615,-12.396,-3.4127
54.38700000000006,-0.19613,-8.6299,-6.237
54.45799999999997,-0.78453,-6.2763,-4.5111
54.528999999999996,-0.07845,-6.4724,-4.2757
54.60000000000002,-0.43149,-6.4724,-4.9033
54.67100000000005,-1.3337,-6.0801,-6.0801
54.74199999999996,3.33426,-8.2768,-6.5508
54.81299999999999,9.06135,-17.26,-5.4133
54.884000000000015,0.078453,-9.4928,-5.1387
54.95500000000004,3.21658,-9.7282,-2.7066
55.025999999999954,2.39282,-6.2763,-5.4133
55.09699999999998,2.942,-4.7464,-5.2564
55.168000000000006,1.05912,-6.9431,-4.9033
55.23900000000003,-0.78453,-5.4133,-5.021
55.31000000000006,-0.15691,-8.2376,-7.5707
55.38099999999997,2.5105,-12.278,-2.9812
55.452,9.84588,-13.141,-1.8829
55.523000000000025,-0.50995,-9.7282,-6.9823
55.59400000000005,-0.43149,-7.1,-4.2365
55.664999999999964,-0.50995,-6.237,-4.2757
55.73599999999999,-0.62763,-6.237,-4.668
55.807000000000016,-0.5884,-4.9426,-5.4917
55.87800000000004,3.96189,-7.61,-4.668
55.948999999999955,0.039227,-13.455,-10.356
56.01999999999998,7.80609,-14.357,-4.0403
56.23300000000006,2.942,-4.2365,-4.6287
56.303999999999974,1.01989,-7.0216,-4.9033
56.375,-0.43149,-4.7072,-4.7464
56.446000000000026,-1.4122,-7.6492,-7.7669
56.51700000000005,1.72597,-14.278,-6.5901
56.587999999999965,10.5127,-15.102,-0.19613
56.65899999999999,1.56906,-10.277,-7.7669
56.73000000000002,-1.4514,-8.4729,-4.0796
56.801000000000045,0.078453,-6.4332,-4.5111
56.87199999999996,0.549172,-5.9232,-4.7856
56.942999999999984,-1.8437,-5.1779,-4.9426
57.01400000000001,0.627626,-7.3746,-4.5111
57.085000000000036,-0.15691,-8.5122,-7.5707
57.15600000000006,11.9249,-15.691,-3.1774
57.226999999999975,6.27626,-11.101,-6.3155
57.298,2.19669,-8.2768,-6.0017
57.36900000000003,2.54973,-5.374,-4.4718
57.440000000000055,2.47128,-6.4724,-4.6287
57.51099999999997,-0.11768,-5.9624,-5.531
57.581999999999994,-0.23536,-3.6088,-4.668
57.65300000000002,-2.7459,-6.8647,-8.1199
57.724000000000046,3.29503,-19.103,-2.1182
57.79499999999996,6.86466,-12.984,-4.9033
57.865999999999985,-0.90221,-9.4144,-6.3547
57.93700000000001,-0.47072,-7.1,-4.5111
58.00800000000004,-0.70608,-6.1586,-4.3542
58.079000000000065,-0.35304,-6.237,-4.9033
58.14999999999998,-0.74531,-4.8249,-4.9426
58.221000000000004,2.98122,-6.9823,-4.9033
58.29200000000003,0.156906,-12.435,-10.905
58.363000000000056,4.47183,-12.121,-2.9812
58.43399999999997,5.29559,-10.434,-5.6879
58.504999999999995,2.58896,-6.1978,-5.8055
58.57600000000002,1.56906,-5.884,-4.5895
58.64700000000005,1.80442,-6.1193,-4.8249
58.860000000000014,0.862985,-17.064,-3.3343
58.93100000000004,10.2774,-13.062,-3.5304
59.00199999999995,-0.31381,-11.14,-7.0608
59.07299999999998,0.039227,-7.4138,-4.4718
59.144000000000005,-0.54917,-6.3547,-4.2757
59.21500000000003,0.627626,-5.8448,-4.5895
59.28600000000006,-0.54917,-5.1387,-5.1387
59.35699999999997,2.19669,-7.3354,-5.4133
59.428,-1.7652,-10.748,-10.317
59.499000000000024,8.90444,-13.494,-1.6083
59.57000000000005,6.15858,-10.983,-5.374
59.64099999999996,1.88288,-7.6884,-5.6094
59.71199999999999,3.21658,-5.7663,-5.1779
59.783000000000015,1.80442,-5.7663,-4.7072
59.85400000000004,0.431493,-5.2171,-5.0995
59.924999999999955,-0.11768,-7.0216,-7.6884
59.99599999999998,0.274586,-14.161,-5.8448
60.06700000000001,12.5133,-11.219,-1.1768
60.138000000000034,0.823759,-10.317,-6.1586
60.20900000000006,1.60829,-7.4531,-4.9818
60.27999999999997,-0.70608,-7.0608,-4.4718
60.49300000000005,0.156906,-6.9431,-6.6685
60.563999999999965,3.13813,-7.9238,-7.0608
60.63499999999999,7.25692,-14.122,-4.0403
60.70600000000002,7.3746,-12.043,-6.3155
60.777000000000044,5.06023,-7.8453,-6.5508
60.847999999999956,-0.39227,-5.6486,-5.374
60.91899999999998,2.86354,-7.2569,-3.9227
60.99000000000001,1.25525,-5.0995,-6.4724
61.061000000000035,1.45138,-5.021,-6.6685
61.13200000000006,-2.2751,-9.1398,-3.9619
61.202999999999975,4.47183,-12.866,-4.8249
61.274,9.57129,-11.964,-2.9028
61.486999999999966,-0.47072,-7.2177,-5.2171
61.55799999999999,0.549172,-6.6293,-4.9426
61.62900000000002,-0.5884,-5.2564,-5.7271
61.700000000000045,1.49061,-7.4138,-5.7663
61.77099999999996,3.88343,-16.083,-8.8652
61.841999999999985,1.96133,-11.415,-4.6287
61.91300000000001,4.43261,-8.0415,-3.6088
61.98400000000004,2.942,-5.021,-5.2956
62.055000000000064,2.62818,-7.4531,-4.2365
62.125999999999976,0.784532,-6.237,-5.7271
62.197,0,-5.374,-6.0409
62.26800000000003,-1.216,-7.4531,-7.2569
62.480999999999995,3.21658,-11.768,-3.2558
62.55200000000002,1.72597,-8.3553,-5.6094
62.62300000000005,-1.3729,-6.9823,-4.1188
62.69399999999996,0.313813,-6.3155,-4.0403
62.764999999999986,-0.03923,-6.0017,-5.531
62.83600000000001,-0.90221,-6.4332,-5.9624
62.90700000000004,2.15746,-6.9431,-4.7072
62.97799999999995,8.39449,-16.004,-6.4332
63.04899999999998,4.47183,-11.807,-6.5116
63.120000000000005,3.41271,-9.0221,-6.2763
63.19100000000003,1.68674,-5.374,-5.1779
63.26200000000006,2.3536,-6.4332,-4.9426
63.33299999999997,1.64752,-5.7663,-6.0017
63.403999999999996,0.156906,-4.7464,-5.6486
63.47500000000002,-0.5884,-7.8061,-8.0022
63.54600000000005,1.49061,-14.082,-6.6293
63.61699999999996,11.3757,-14.122,2.5105
63.68799999999999,0.784532,-10.434,-7.4138
63.759000000000015,-0.66685,-7.7669,-5.1387
63.83000000000004,-0.74531,-7.3746,-4.0403
63.900999999999954,0.23536,-6.3155,-4.668
63.97199999999998,-0.90221,-5.531,-5.3348
64.043,-1.0591,-7.1785,-6.4332
64.25599999999997,8.47295,-11.219,-3.6873
64.327,2.58896,-8.3553,-5.8448
64.39800000000002,1.9221,-4.9033,-5.4525
64.46900000000005,1.49061,-7.8845,-4.4326
64.53999999999996,-0.70608,-5.2956,-5.6879
64.61099999999999,0.196133,-5.0602,-5.9624
64.68200000000002,-0.82376,-11.023,-6.0017
64.75300000000004,4.8641,-14.553,-4.8249
64.82399999999996,6.43316,-11.611,-1.1768
64.89499999999998,0.784532,-8.2768,-5.7663
64.96600000000001,-0.74531,-7.2177,-4.668
65.03700000000003,-0.07845,-6.9431,-3.9619
65.10800000000006,-0.03923,-6.9431,-5.1779
65.17899999999997,-1.4514,-5.6094,-5.7271
65.25,2.15746,-7.61,-5.4525
65.32100000000003,0.666852,-14.71,-9.3752
65.39200000000005,2.15746,-10.434,-2.3536
65.46299999999997,4.43261,-9.6497,-3.7265
65.53399999999999,3.13813,-6.9823,-5.3348
65.60500000000002,0.902212,-6.9431,-5.2171
65.67600000000004,1.13757,-6.0801,-5.374
65.74699999999996,-0.5884,-5.8055,-5.374
65.81799999999998,-0.35304,-8.1199,-7.1785
65.88900000000001,-1.0983,-12.984,-4.158
65.96000000000004,9.02212,-10.238,-2.942
66.03100000000006,0.980665,-11.886,-4.8641
66.10199999999998,1.25525,-8.0415,-5.4917
66.173,-0.82376,-7.2177,-4.5503
66.24400000000003,-0.03923,-6.8647,-4.4326
66.31500000000005,-0.11768,-5.7663,-5.4525
66.38599999999997,-0.66685,-7.2569,-5.9232
66.457,1.60829,-7.7669,-7.1392
66.52800000000002,6.23703,-14.553,-6.9039
66.81200000000001,1.96133,-7.5315,-5.0602
66.88300000000004,0.392266,-5.4133,-5.9624
66.95400000000006,0.156906,-4.1188,-5.2956
67.02499999999998,-0.90221,-8.5122,-8.7083
67.096,1.88288,-16.122,-4.7464
67.16700000000003,8.74753,-15.181,-2.942
67.23800000000006,-0.70608,-9.689,-6.7077
67.30899999999997,0.039227,-7.2177,-5.0602
67.38,-0.94144,-6.8254,-4.3934
67.45100000000002,-0.43149,-6.1193,-4.7856
67.52200000000005,-0.50995,-4.4326,-5.021
67.59299999999996,3.21658,-7.0608,-5.374
67.66399999999999,0.078453,-12.709,-11.572
67.73500000000001,2.90277,-12.513,-1.0591
67.80600000000004,3.80498,-9.5713,-5.2171
67.87699999999995,2.90277,-5.3348,-5.0995
67.94799999999998,-0.07845,-6.9431,-6.1586
68.16100000000006,-0.03923,-7.61,-8.316
68.23199999999997,-1.9613,-12.827,-7.2961
68.303,11.0227,-13.298,0.980665
68.37400000000002,1.25525,-9.9636,-6.7077
68.44500000000005,0.313813,-7.7276,-5.4917
68.51599999999996,-1.4122,-7.4923,-3.9619
68.58699999999999,0.431493,-6.5901,-4.7072
68.65800000000002,-0.03923,-5.7271,-5.4133
68.72900000000004,-1.0199,-6.7862,-6.3939
68.79999999999995,1.25525,-7.3746,-7.0608
68.87099999999998,8.5514,-14.867,-6.5508
68.94200000000001,6.94311,-11.376,-4.158
69.01300000000003,3.29503,-8.9044,-5.8055
69.08400000000006,1.13757,-6.0801,-5.021
69.15499999999997,1.37293,-6.6293,-4.4326
69.226,1.01989,-4.9818,-5.2171
69.29700000000003,0.706079,-5.1387,-5.7663
69.36800000000005,-1.6475,-7.9238,-6.8254
69.43899999999996,0.784532,-15.298,-5.4133
69.50999999999999,10.0028,-14.278,0.823759
69.58100000000002,-0.5884,-9.6105,-8.7083
69.65200000000004,-1.2553,-7.4138,-4.8249
69.86500000000001,-0.78453,-5.021,-5.4133
69.93600000000004,0.353039,-7.6492,-5.6879
70.00700000000006,-1.0591,-12.827,-9.8851
70.07799999999997,5.25636,-11.729,-3.3735
70.149,4.78565,-11.807,-4.2757
70.22000000000003,3.72653,-7.5707,-5.4133
70.29100000000005,1.84365,-4.8249,-5.6879
70.36199999999997,1.88288,-7.4531,-4.9426
70.43299999999999,-1.2553,-5.4525,-5.2956
70.50400000000002,1.29448,-4.5895,-5.4133
70.57500000000005,-1.0199,-10.63,-5.2564
70.64599999999996,8.00223,-13.455,-1.0591
70.71699999999998,2.58896,-11.807,-5.9624
70.78800000000001,0.313813,-8.3553,-5.3348
70.85900000000004,-0.98067,-6.5508,-4.2365
70.93000000000006,-0.70608,-7.0608,-3.9619
71.00099999999998,1.41216,-5.4133,-4.9426
71.072,-1.1376,-6.6293,-6.0017
71.14300000000003,2.70664,-7.0216,-5.6486
71.21400000000006,8.70831,-15.573,-6.0409
71.28499999999997,6.0409,-12.356,-5.4525
71.356,1.80442,-8.7475,-5.9232
71.42700000000002,4.8641,-4.9033,-5.6094
71.49800000000005,0.509946,-6.9431,-5.9624
71.56899999999996,0.156906,-6.4724,-4.9426
71.63999999999999,0.509946,-4.9426,-5.374
71.71100000000001,-0.66685,-7.4138,-6.8647
71.78200000000004,4.55029,-14.122,-3.4519
71.85299999999995,6.31548,-15.338,-2.7066
72.13700000000006,0.902212,-6.4724,-4.4326
72.20799999999997,-0.70608,-4.9818,-5.0602
72.279,4.07957,-8.0807,-3.8834
72.35000000000002,5.84476,-14.671,-8.7083
72.42100000000005,3.53039,-13.062,-5.2956
72.49199999999996,4.15802,-10.081,-5.8055
72.56299999999999,3.17735,-5.2171,-5.8055
72.63400000000001,0.549172,-6.9039,-4.2757
72.70500000000004,0.902212,-5.884,-4.9818
72.77599999999995,0.823759,-4.4718,-5.4133
72.84699999999998,-0.66685,-7.8845,-7.3746
72.918,2.03978,-16.867,-5.531
72.98900000000003,9.80665,-15.181,0.549172
73.06000000000006,-1.1768,-9.8067,-7.2569
73.13099999999997,-0.66685,-7.4531,-4.668
73.202,-0.94144,-7.0608,-4.5895
73.27300000000002,0.627626,-6.1193,-4.7856
73.34400000000005,0.823759,-5.0995,-5.3348
73.41499999999996,3.0989,-7.8845,-5.5702
73.48599999999999,0.470719,-11.925,-10.866
73.55700000000002,8.94367,-15.102,-1.8829
73.62800000000004,5.02101,-11.14,-5.021
73.69899999999996,4.8641,-6.9431,-5.6094
73.76999999999998,1.52984,-5.2171,-5.4525
73.84100000000001,1.49061,-6.9431,-3.6481
73.91200000000003,0.353039,-5.1779,-5.4917
73.98300000000006,1.84365,-5.8055,-7.1
74.05399999999997,-0.5884,-12.709,-4.5895
74.125,7.57073,-12.16,-2.8635
74.19600000000003,3.02045,-12.16,-5.531
74.26700000000005,0.23536,-7.7669,-5.6486
74.33799999999997,-0.66685,-7.6884,-4.158
74.40899999999999,0.666852,-6.3155,-4.1188
74.48000000000002,-0.11768,-6.0409,-5.2956
74.55100000000004,-1.0983,-6.7862,-6.1586
74.62199999999996,5.06023,-7.8061,-4.0403
74.69299999999998,5.92322,-16.554,-7.7276
74.76400000000001,2.39282,-12.749,-4.4326
74.83500000000004,4.00111,-8.7083,-6.1978
74.90600000000006,2.19669,-4.7464,-5.0995
74.97699999999998,1.64752,-8.1591,-4.2757
75.048,1.9221,-5.2564,-5.884
75.11900000000003,0.588399,-5.3348,-5.7271
75.19000000000005,1.01989,-7.61,-7.6492
75.26099999999997,0.980665,-14.318,-5.2564
75.332,9.41438,-13.023,-0.78453
75.40300000000002,0.156906,-10.552,-7.0216
75.47400000000005,0.11768,-7.5707,-4.5503
75.54499999999996,-0.94144,-7.0216,-4.1188
75.61599999999999,0.196133,-5.9624,-4.668
75.68700000000001,-1.1376,-5.8448,-5.0602
75.75800000000004,-1.4514,-7.3746,-6.747
75.82900000000006,1.72597,-8.0415,-5.6486
75.89999999999998,8.51217,-15.455,-4.8641
75.971,6.59007,-13.102,-7.7669
76.04200000000003,2.942,-9.8851,-6.8254
76.11300000000006,0.078453,-7.8453,-4.7464
76.18399999999997,1.49061,-5.3348,-5.2171
76.255,1.68674,-5.6094,-6.1193
76.32600000000002,0.470719,-5.0995,-4.0011
76.39700000000005,-2.1182,-8.1984,-6.8647
76.46799999999996,3.72653,-15.377,-3.9227
76.53899999999999,8.19836,-11.729,-4.4326
76.61000000000001,-0.43149,-9.1006,-6.0801
76.68100000000004,-0.27459,-6.5901,-4.5503
76.75199999999995,-0.98067,-6.9431,-4.7464
76.82299999999998,0.039227,-6.1978,-4.6287
76.894,-0.03923,-4.5503,-5.8055
76.96500000000003,2.82432,-8.1984,-5.4917
77.03600000000006,4.23647,-16.201,-9.0613
77.32000000000005,2.27514,-5.4525,-5.374
77.39099999999996,2.27514,-4.7072,-6.1586
77.46199999999999,-0.39227,-5.1387,-5.884
77.53300000000002,-1.0199,-7.8453,-8.1199
77.60400000000004,2.5105,-15.495,-6.1193
77.67499999999995,10.7873,-12.866,0.902212
77.74599999999998,-0.86299,-9.179,-6.6293
77.81700000000001,-0.15691,-6.9431,-5.0995
77.88800000000003,-0.74531,-7.2569,-4.0011
77.95900000000006,-0.03923,-6.5508,-4.7464
78.02999999999997,-1.0199,-5.6094,-5.1779
78.101,-0.23536,-7.8453,-6.3939
78.17200000000003,1.29448,-9.0613,-7.963
78.24300000000005,9.17902,-14.749,-2.5497
78.31399999999996,8.90444,-12.239,-6.4332
78.38499999999999,-0.5884,-8.5514,-6.2763
78.45600000000002,1.96133,-4.9426,-4.7464
78.52700000000004,3.21658,-6.3939,-4.3542
78.59799999999996,-1.2945,-6.1193,-5.374
78.66899999999998,-0.62763,-6.4724,-6.5116
78.74000000000001,-1.4906,-10.003,-3.0204
78.81100000000004,4.31493,-11.768,-5.5702
78.88200000000006,8.00223,-12.16,-2.0006
78.95299999999997,0.078453,-7.3746,-6.7077
79.024,-2.3928,-7.5707,-4.668
79.09500000000003,0,-7.5315,-4.0403
79.16600000000005,0.706079,-5.6486,-5.1387
79.23699999999997,-2.5497,-5.6486,-5.531
79.30799999999999,2.86354,-7.5315,-4.4326
79.37900000000002,-0.39227,-15.691,-9.9636
79.45000000000005,4.8641,-11.297,-4.4718
79.52099999999996,3.49117,-10.356,-5.6094
79.59199999999998,2.11824,-5.8055,-5.1387
79.66300000000001,1.96133,-4.9033,-5.5702
79.73400000000004,0.039227,-7.0216,-5.3348
79.80500000000006,-1.4514,-5.0995,-5.5702
79.87599999999998,-0.78453,-8.6691,-8.0807
79.947,0.509946,-15.495,-6.1193
80.01800000000003,12.0426,-13.965,0.156906
80.08900000000006,-1.8044,-10.552,-8.2376
80.15999999999997,-0.70608,-8.7475,-3.8834
80.231,0.509946,-6.0017,-4.5111
80.30200000000002,-1.4514,-5.9232,-4.668
80.37300000000005,-1.9613,-5.374,-4.668
80.44399999999996,0.588399,-7.8061,-5.0995
80.51499999999999,-2.942,-8.0807,-8.0022
80.58600000000001,10.2774,-15.534,-7.6492
80.65700000000004,4.00111,-12.709,-7.3746
80.72799999999995,0.196133,-9.3359,-6.7077
80.79899999999998,2.43205,-6.3939,-5.2171
80.87,2.00056,-5.4525,-5.4133
80.94100000000003,0.666852,-5.9624,-4.4718
81.01200000000006,-0.39227,-7.6884,-7.4531
81.08299999999997,-0.35304,-11.062,-4.9818
81.154,3.84421,-13.69,-8.3553
81.22500000000002,5.09946,-12.121,-0.39227
81.29600000000005,1.68674,-7.3354,-5.9232
81.36699999999996,1.05912,-9.8459,-3.4519
81.43799999999999,0.745305,-7.8061,-3.8834
81.50900000000001,-0.35304,-8.4337,-2.5105
81.58000000000004,-0.90221,-6.0409,-3.5304
81.65099999999995,7.57073,-11.964,-1.2945
81.72199999999998,-0.43149,-8.5122,-7.4531
81.793,3.02045,-9.5321,-3.3343
81.86400000000003,3.0989,-7.8061,-5.531
81.93500000000006,2.31437,-8.3945,-4.9033
82.00599999999997,2.23592,-8.5906,-5.2171
82.077,2.82432,-8.9437,-5.3348
82.14800000000002,1.13757,-8.316,-5.6094
82.21900000000005,1.84365,-8.5514,-5.021
82.28999999999996,1.84365,-8.7868,-5.4917
82.36099999999999,1.60829,-8.6299,-5.2171
82.43200000000002,1.41216,-8.5906,-5.0602
82.50300000000004,1.13757,-8.6691,-5.2564
82.57399999999996,1.37293,-8.9044,-5.021
82.64499999999998,1.45138,-8.7083,-5.2564
82.71600000000001,1.29448,-8.6299,-5.1387
82.78700000000003,1.25525,-8.8652,-5.2171
82.85800000000006,1.29448,-8.7868,-5.1387
82.92899999999997,1.3337,-8.7083,-5.2564
83.0,1.29448,-8.5906,-5.3348
83.07100000000003,1.29448,-8.826,-5.2956
83.14200000000005,1.3337,-8.7083,-5.531
83.21299999999997,1.3337,-8.7083,-5.374
83.28399999999999,1.3337,-8.5514,-5.4917
83.35500000000002,1.41216,-8.5906,-5.4525
