NAME:,walk3.csv,,
EXPERIMENT TIME:,03/06/2023 14:37,,
ACTIVITY TYPE:,Walking,,
COUNT OF ACTUAL STEPS:,94,,
,,,
Time [sec],ACC X,ACC Y,ACC Z
0,-4.746419,-1.686744,-5.491724
0.071,-4.667965,-1.569064,-5.88399
0.142,-4.667965,-1.490611,-5.962444
0.213,-4.707192,-1.765197,-5.334818
0.284,-4.667965,-1.569064,-5.687858
0.355,-4.550286,-1.725971,-5.570178
0.426,-4.707192,-1.451384,-6.080123
0.497,-3.961887,-2.157463,-5.609404
0.568,-3.687301,-1.098345,-6.629296
0.639,-4.236473,-0.823759,-6.158576
0.71,-3.373488,-1.765197,-5.76631
0.781,-2.706636,-1.804424,-6.315483
0.852,-1.804424,-1.765197,-5.648631
0.923,-2.235916,-1.255251,-5.060232
0.994,-2.863542,-0.823759,-5.138685
1.065,-2.432049,0.078453,-7.84532
1.136,-0.666852,-2.235916,-9.924331
1.207,-1.412158,-2.667409,-6.982335
1.278,-3.726527,-3.765754,-4.903325
1.349,-1.84365,-2.785089,-6.197803
1.42,-3.961887,-2.706636,-5.060232
1.491,-4.589512,-2.039783,-3.020448
1.562,-3.020448,-1.372931,-5.099459
1.633,-3.92266,-0.23536,-3.726527
1.704,-5.256365,0.039227,-6.00167
1.775,-5.923217,2.745862,-9.139798
1.846,-5.727084,-1.176798,-9.80665
1.917,-4.432606,-6.590069,-0.470719
1.988,-7.766868,-4.118793,-7.609961
2.059,-3.295035,-3.216581,-2.353596
2.13,-3.80498,-1.255251,-1.804424
2.201,-2.19669,-0.941438,-2.07901
2.272,-3.020448,-0.392266,-4.236473
2.343,-3.020448,-1.529837,-10.198917
2.414,-2.706636,-6.943109,-9.963557
2.485,-3.961887,-4.903325,-5.177911
2.556,-8.276814,-3.295035,-7.296148
2.627,-1.490611,-3.177355,-6.746975
2.698,-3.451941,-1.216025,-2.471276
2.769,-3.334261,-1.490611,-2.471276
2.84,-3.216581,-0.078453,-2.824315
2.911,-2.31437,-0.902212,-6.00167
2.982,-6.590069,3.569621,-11.807208
3.053,-8.472946,-0.784532,-12.317153
3.124,-2.039783,-9.885103,-0.039227
3.195,-10.865768,-1.176798,-8.119907
3.266,-1.804424,-3.530394,-2.745862
3.337,-4.001113,-2.667409,-1.84365
3.408,-2.19669,-0.549172,-2.824315
3.479,-2.118237,-0.078453,-3.961887
3.55,-1.96133,-2.000557,-11.767981
3.621,-3.295035,-2.902768,-9.453611
3.692,-8.66908,-9.139798,-1.333704
3.763,-6.040897,-0.941438,-9.375158
3.834,-1.647517,-1.333704,-6.550843
3.905,-3.844207,-1.372931,-1.490611
3.976,-3.373488,-0.11768,-4.197247
4.047,-3.059675,1.137571,-4.15802
4.118,-4.15802,-0.745305,-4.864099
4.189,-3.80498,-0.039227,-9.963557
4.26,-12.160246,-2.07901,-5.805537
4.331,-3.844207,-5.138685,-5.687858
4.402,-6.433163,-3.883434,-7.453054
4.473,-1.84365,-3.295035,-3.648074
4.544,-3.491168,-1.490611,-1.84365
4.615,-2.549729,-0.431493,-1.412158
4.686,-2.628182,-0.353039,-5.844764
4.757,-1.686744,1.098345,-13.180139
4.828,-1.098345,-4.589512,-9.414385
4.899,-3.80498,-6.040897,-6.11935
4.97,-7.688414,-2.471276,-6.433163
5.041,-1.294478,-3.138128,-6.00167
5.112,-4.511059,-1.294478,-2.235916
5.183,-2.706636,-0.627626,-3.098902
5.254,-1.686744,0.509946,-3.059675
5.325,-5.570178,-0.509946,-8.355267
5.396,-4.079566,1.96133,-8.708306
5.467,-9.492838,-0.784532,-12.827099
5.538,-3.569621,-5.060232,-2.471276
5.609,-9.257479,-2.667409,-8.119907
5.68,-2.941995,-3.177355,-1.098345
5.751,-3.80498,-2.039783,-1.098345
5.822,-1.922104,0,-3.020448
5.893,-2.902768,0,-5.962444
5.964,0.823759,1.333704,-13.807764
6.035,-2.549729,-3.648074,-14.709976
6.106,-8.002227,-7.492281,0.274586
6.177,-5.374045,-4.432606,-9.80665
6.248,-2.588956,-3.059675,-4.314926
6.319,-3.334261,-1.059118,-2.824315
6.39,-3.765754,0,-3.295035
6.461,-3.177355,1.922104,-4.824872
6.532,-3.608848,-0.274586,-8.002227
6.603,-7.021562,-3.295035,-6.276257
6.674,-4.628739,-4.118793,-7.374601
6.745,-1.294478,-5.76631,-8.394493
6.816,-7.100015,-1.647517,-4.628739
6.887,-2.118237,-0.078453,-0.11768
6.958,-2.628182,-0.941438,-3.177355
7.029,-1.647517,-0.078453,-5.060232
7.1,-4.589512,-1.333704,-9.845878
7.171,-1.490611,-7.609961,-11.414941
7.242,-6.864655,-5.76631,-3.844207
7.313,-6.707749,-1.019892,-8.629852
7.384,-0.941438,-1.372931,-6.433163
7.455,-4.001113,-0.353039,-1.333704
7.526,-3.530394,-0.156906,-4.079566
7.597,-3.530394,0.078453,-3.92266
7.668,-3.530394,-0.745305,-7.021562
7.739,-6.786202,-2.000557,-8.355267
7.81,-4.393379,-4.785645,-8.865212
7.881,-2.000557,-5.88399,-5.76631
7.952,-5.334818,-2.118237,-7.100015
8.023,-3.491168,0,-1.255251
8.094,-2.745862,-1.019892,-2.353596
8.165,-2.667409,0.431493,-3.020448
8.236,-4.667965,-0.980665,-6.786202
8.307,-0.509946,1.529837,-13.062458
8.378,-0.274586,-6.550843,-14.082351
8.449,-7.649188,-6.197803,-3.883434
8.52,-0.706079,-5.374045,-9.061345
8.591,-3.373488,-2.549729,-2.039783
8.662,-3.451941,-1.216025,-2.941995
8.733,-2.981222,0.11768,-2.392823
8.804,-3.648074,-0.627626,-5.099459
8.875,-5.962444,3.648074,-13.062458
8.946,-9.688971,-4.864099,-8.002227
9.017,-0.784532,-11.964113,-1.490611
9.088,-10.15969,0.784532,-11.728755
9.159,-1.922104,-1.765197,-3.765754
9.23,-2.863542,-0.392266,-0.509946
9.301,-1.84365,-0.156906,-3.098902
9.372,-2.392823,0.588399,-6.825429
9.443,-1.216025,1.529837,-13.533178
9.514,-2.471276,-0.784532,-5.727084
9.585,-4.236473,-8.629852,-3.726527
9.656,-7.296148,-2.785089,-5.88399
9.727,-1.176798,-2.07901,-7.217695
9.798,-3.334261,-1.137571,-2.07901
9.869,-2.628182,-0.588399,-2.863542
9.94,-4.2757,1.686744,-4.903325
10.011,-2.157463,-1.255251,-7.335374
10.082,-6.315483,-1.176798,-7.060789
10.153,-9.728197,-1.804424,-12.944778
10.224,-0.078453,-6.354709,-4.550286
10.295,-8.708306,-1.725971,-8.198359
10.366,-2.392823,-1.765197,-1.96133
10.437,-3.295035,-2.000557,-1.294478
10.508,-1.922104,-0.196133,-2.628182
10.579,-3.765754,-1.569064,-7.060789
10.65,-0.706079,1.608291,-12.081794
10.721,-2.07901,-6.197803,-14.749203
10.792,-5.060232,-5.021005,-1.725971
10.863,-3.648074,-5.060232,-9.179025
10.934,-2.588956,-2.863542,-2.863542
11.005,-3.92266,-0.980665,-2.275143
11.076,-3.373488,0.156906,-3.687301
11.147,-3.608848,-0.23536,-6.472389
11.218,-7.139242,2.863542,-10.787315
11.289,-10.904996,-5.805537,-6.982335
11.36,-2.785089,-9.257479,-4.667965
11.431,-7.178468,-1.294478,-9.845878
11.502,-3.295035,-1.686744,-4.471833
11.573,-3.961887,0,-0.823759
11.644,-2.785089,-0.078453,-1.84365
11.715,-2.981222,1.333704,-4.354153
11.786,0.862985,0.23536,-14.278483
11.857,-2.31437,-6.707749,-16.985119
11.928,-6.746975,-6.472389,0.706079
11.999,-3.216581,-5.530951,-11.101129
12.07,-2.902768,-2.510503,-3.412714
12.141,-3.412714,-0.941438,-2.941995
12.212,-4.2757,-0.470719,-2.588956
12.283,-2.549729,0.627626,-4.236473
12.354,-3.844207,-1.372931,-5.962444
12.425,-6.903882,-0.588399,-8.66908
12.496,-5.805537,-3.020448,-11.179583
12.567,-0.980665,-5.570178,-4.746419
12.638,-7.296148,-2.31437,-7.806094
12.709,-3.80498,-1.490611,-1.725971
12.78,-2.863542,-1.96133,-3.059675
12.851,-2.19669,-0.196133,-3.334261
12.922,-1.451384,0.039227,-5.177911
12.993,0.666852,-3.255808,-12.513286
13.064,-5.217138,-4.864099,-12.199473
13.135,-5.727084,-9.571291,1.96133
13.206,-6.393936,-3.608848,-9.100572
13.277,-0.902212,-2.235916,-4.903325
13.348,-4.079566,-1.019892,-3.020448
13.419,-3.726527,-0.23536,-4.314926
13.49,-4.197247,0.902212,-5.256365
13.561,-2.588956,-1.333704,-5.923217
13.632,-6.511616,2.157463,-7.923774
13.703,-8.708306,-1.96133,-9.414385
13.774,-0.862985,-7.570734,-4.628739
13.845,-7.060789,-2.19669,-7.766868
13.916,-4.118793,-1.647517,-3.334261
13.987,-2.824315,-1.137571,-3.295035
14.058,-2.432049,-0.039227,-2.588956
14.129,-2.706636,0,-5.491724
14.2,-1.176798,-2.353596,-11.336488
14.271,-2.039783,-7.335374,-10.434276
14.342,-6.315483,-7.021562,-1.137571
14.413,-5.805537,-0.353039,-8.66908
14.484,-2.19669,-1.765197,-5.88399
14.555,-4.471833,-0.431493,-3.648074
14.626,-3.569621,-0.509946,-3.648074
14.697,-3.216581,0.745305,-4.824872
14.768,-3.020448,-1.176798,-5.374045
14.839,-6.23703,3.138128,-10.27737
14.91,-7.492281,-0.706079,-10.669636
14.981,-2.941995,-8.512173,-2.432049
15.052,-7.609961,-2.588956,-7.531507
15.123,-3.883434,-2.745862,-1.216025
15.194,-2.981222,-0.627626,-2.628182
15.265,-2.157463,-0.392266,-4.04034
15.336,-2.902768,-0.274586,-5.138685
15.407,-1.765197,-2.392823,-9.492838
15.478,-3.844207,-4.471833,-8.786758
15.549,-2.941995,-1.882877,-9.100572
15.62,-7.453054,-1.216025,-4.824872
15.691,0.274586,-2.667409,-8.551399
15.762,-3.961887,-1.529837,-1.84365
15.833,-3.92266,-0.902212,-3.883434
15.904,-3.648074,0.509946,-4.079566
15.975,-2.902768,-1.137571,-5.413271
16.046,-6.354709,3.844207,-10.355823
16.117,-9.218252,-0.11768,-12.2387
16.188,-2.353596,-9.963557,0.11768
16.259,-9.296705,-0.549172,-9.688971
16.33,-3.451941,-2.902768,-2.941995
16.401,-2.863542,-0.941438,-1.529837
16.472,-2.549729,0,-3.569621
16.543,-2.039783,0.392266,-5.177911
16.614,-2.628182,-2.07901,-8.31604
16.685,-3.687301,-7.256921,-15.651415
16.756,-8.472946,-4.354153,-1.255251
16.827,-5.530951,-2.000557,-4.628739
16.898,-0.902212,-2.432049,-8.276814
16.969,-3.020448,-0.156906,-2.824315
17.04,-4.393379,-0.353039,-2.510503
17.111,-2.353596,-0.11768,-4.432606
17.182,-2.981222,-1.529837,-5.334818
17.253,-6.982335,3.216581,-9.218252
17.324,-11.611073,-1.098345,-13.297818
17.395,0.274586,-9.571291,-5.217138
17.466,-9.610518,-0.862985,-8.66908
17.537,-2.863542,-1.84365,-1.412158
17.608,-2.31437,-0.588399,-2.07901
17.679,-2.118237,-0.588399,-3.020448
17.75,-2.628182,1.216025,-5.923217
17.821,1.882877,-2.588956,-10.669636
17.892,-7.374601,-5.413271,-9.179025
17.963,-7.727641,-6.433163,-1.608291
18.034,-2.471276,-5.530951,-9.061345
18.105,-2.785089,-2.118237,-3.80498
18.176,-3.216581,-0.23536,-2.785089
18.247,-3.726527,-0.274586,-3.412714
18.318,-3.80498,1.765197,-6.393936
18.389,-5.374045,-0.039227,-8.982892
18.46,-6.590069,-3.255808,-6.276257
18.531,-4.236473,-2.941995,-8.355267
18.602,-2.039783,-2.588956,-8.43372
18.673,-5.530951,-1.882877,-6.11935
18.744,-2.275143,-0.627626,-2.392823
18.815,-2.588956,-1.019892,-2.863542
18.886,-2.19669,0.353039,-3.687301
18.957,-4.314926,-2.824315,-6.276257
19.028,-3.177355,0.745305,-11.650301
19.099,-1.765197,-4.903325,-14.160804
19.17,-5.962444,-6.11935,-3.216581
19.241,-1.96133,-5.76631,-9.061345
19.312,-2.706636,-2.000557,-0.353039
19.383,-3.726527,-0.627626,-3.138128
19.454,-3.687301,1.137571,-3.92266
19.525,-3.687301,-0.706079,-6.903882
19.596,-7.923774,4.707192,-10.63041
19.667,-6.786202,-1.608291,-10.316596
19.738,-2.353596,-8.159133,-4.628739
19.809,-7.727641,-0.156906,-8.237586
19.88,-3.687301,-1.490611,-3.216581
19.951,-2.785089,-2.118237,-1.882877
20.022,-2.31437,0.274586,-3.648074
20.093,-2.785089,0.353039,-5.491724
20.164,-0.23536,-2.549729,-10.826543
20.235,-4.15802,-4.981779,-8.708306
20.306,-5.570178,-8.747532,-0.23536
20.377,-5.295591,-2.118237,-9.218252
20.448,-1.84365,-1.84365,-6.315483
20.519,-3.569621,-1.098345,-2.275143
20.59,-3.961887,0.431493,-4.746419
20.661,-2.785089,1.804424,-4.864099
20.732,-4.118793,-1.019892,-6.786202
20.803,-4.746419,1.019892,-8.159133
20.874,-8.629852,-0.862985,-10.316596
20.945,-0.941438,-7.884547,-3.098902
21.016,-8.747532,-2.039783,-8.159133
21.087,-4.04034,-2.235916,-2.039783
21.158,-2.392823,-1.137571,-1.725971
21.229,-2.863542,0.039227,-2.667409
21.3,-3.098902,-0.11768,-7.374601
21.371,0.431493,1.647517,-12.984006
21.442,-3.334261,-4.628739,-14.160804
21.513,-6.590069,-6.903882,-0.509946
21.584,-5.138685,-4.707192,-8.43372
21.655,-1.922104,-2.353596,-4.824872
21.726,-4.2757,-0.706079,-1.804424
21.797,-4.079566,-0.470719,-4.314926
21.868,-3.765754,-0.23536,-6.707749
21.939,-7.963,2.549729,-11.454168
22.01,-8.355267,-4.354153,-8.355267
22.081,-2.235916,-7.884547,-5.138685
22.152,-3.098902,-1.608291,-7.84532
22.223,-4.667965,-2.549729,-5.923217
22.294,-1.412158,-1.255251,-2.000557
22.365,-2.706636,-0.11768,-2.902768
22.436,-1.608291,0.666852,-5.295591
22.507,-1.137571,-0.627626,-11.571848
22.578,-2.353596,-4.746419,-15.416055
22.649,-3.765754,-5.609404,-2.471276
22.72,-6.629296,-0.627626,-6.982335
22.791,-1.412158,-1.098345,-6.511616
22.862,-3.295035,-1.019892,-3.961887
22.933,-3.255808,-0.666852,-2.863542
23.004,-3.216581,0.039227,-4.393379
23.075,-3.530394,-1.019892,-4.942552
23.146,-5.76631,2.628182,-11.493395
23.217,-7.806094,-0.23536,-11.689528
23.288,-1.647517,-6.276257,-2.667409
23.359,-7.256921,-0.980665,-8.472946
23.43,-3.80498,-2.118237,-3.608848
23.501,-2.824315,-0.980665,-3.80498
23.572,-2.510503,0.196133,-2.549729
23.643,-2.235916,0.706079,-4.942552
23.714,-0.23536,-1.412158,-11.414941
23.785,-2.902768,-3.177355,-6.11935
23.856,-4.314926,-2.902768,-8.786758
23.927,-6.590069,-0.431493,-6.11935
23.998,-1.922104,-2.745862,-7.413828
24.069,-2.706636,-1.176798,-2.549729
24.14,-3.687301,-0.627626,-3.883434
24.211,-3.608848,0.902212,-3.961887
24.282,-2.981222,-1.804424,-6.472389
24.353,-6.433163,2.667409,-9.453611
24.424,-7.374601,1.608291,-13.729311
24.495,-2.275143,-5.962444,-1.647517
24.566,-7.766868,-2.549729,-8.31604
24.637,-3.020448,-3.098902,-2.510503
24.708,-2.785089,-1.333704,-3.138128
24.779,-2.745862,0.353039,-3.373488
24.85,-3.138128,0.706079,-5.805537
24.921,0.23536,0.470719,-13.297818
24.992,-3.412714,-4.785645,-10.39505
25.063,-6.511616,-6.433163,-1.216025
25.134,-4.667965,-3.295035,-7.335374
25.205,-2.667409,-1.725971,-5.570178
25.276,-3.530394,-0.627626,-3.334261
25.347,-4.236473,-0.11768,-4.432606
25.418,-3.569621,1.412158,-5.530951
25.489,-4.550286,-0.941438,-6.393936
25.56,-5.609404,-0.039227,-8.747532
25.631,-8.825986,-1.882877,-10.316596
25.702,-0.902212,-7.139242,-3.334261
25.773,-8.394493,-2.941995,-7.021562
25.844,-3.059675,-2.07901,-4.04034
25.915,-2.628182,-0.862985,-2.353596
25.986,-2.039783,-0.313813,-3.216581
26.057,-3.098902,-1.176798,-6.00167
26.128,-0.23536,2.235916,-13.533178
26.199,-4.785645,-2.667409,-7.766868
26.27,-5.334818,-8.198359,-1.490611
26.341,-6.11935,-1.255251,-7.139242
26.412,-1.647517,-2.588956,-6.158576
26.483,-3.844207,-0.666852,-2.785089
26.554,-3.216581,0.274586,-4.471833
26.625,-3.608848,0.902212,-4.236473
26.696,-3.098902,-1.725971,-7.335374
26.767,-5.177911,1.176798,-8.865212
26.838,-9.963557,-1.529837,-10.002784
26.909,-2.392823,-7.963,-3.020448
26.98,-8.786758,-3.098902,-6.354709
27.051,-3.138128,-2.785089,-2.353596
27.122,-3.020448,-1.451384,-2.235916
27.193,-1.922104,-0.784532,-3.373488
27.264,-3.059675,0.23536,-6.040897
27.335,-0.078453,1.255251,-13.690084
27.406,-5.177911,-2.275143,-16.200586
27.477,-6.11935,-5.334818,0.313813
27.548,-5.177911,-4.942552,-8.08068
27.619,-1.608291,-2.31437,-4.981779
27.69,-4.785645,-0.666852,-2.275143
27.761,-3.608848,-0.156906,-4.707192
27.832,-3.648074,0.902212,-6.825429
27.903,-6.23703,1.922104,-9.649744
27.974,-6.903882,-5.217138,-4.393379
28.045,-4.432606,-3.412714,-7.806094
28.116,-2.275143,-2.745862,-7.178468
28.187,-6.354709,-2.118237,-5.88399
28.258,-2.118237,-0.078453,-2.353596
28.329,-3.020448,-0.353039,-3.373488
28.4,-2.785089,0.23536,-4.118793
28.471,-4.864099,-3.334261,-7.256921
28.542,-4.079566,0.23536,-9.728197
28.613,-0.745305,-2.549729,-11.650301
28.684,-7.923774,-2.275143,-5.138685
28.755,-1.490611,-2.510503,-8.825986
28.826,-3.098902,-1.569064,-1.412158
28.897,-3.648074,-1.451384,-2.745862
28.968,-3.961887,0.392266,-4.001113
29.039,-4.001113,-0.549172,-6.903882
29.11,-5.923217,3.726527,-10.002784
29.181,-8.08068,-0.784532,-11.454168
29.252,-2.31437,-7.884547,-3.412714
29.323,-8.276814,-0.078453,-8.159133
29.394,-3.883434,-2.19669,-3.098902
29.465,-2.510503,-2.039783,-3.255808
29.536,-2.157463,-0.039227,-3.216581
29.607,-2.353596,-0.509946,-4.785645
29.678,-3.491168,-2.588956,-9.610518
29.749,-4.04034,1.333704,-8.198359
29.82,-0.745305,-3.216581,-12.199473
29.891,-6.511616,-1.451384,-5.295591
29.962,-2.039783,-2.510503,-8.31604
30.033,-2.941995,-1.569064,-2.353596
30.104,-3.569621,-1.412158,-3.530394
30.175,-3.648074,0,-4.001113
30.246,-4.236473,-0.353039,-6.354709
30.317,-7.139242,2.588956,-11.689528
30.388,-7.335374,-4.903325,-6.276257
30.459,-2.549729,-2.432049,-7.688414
30.53,-2.941995,0,-8.31604
30.601,-4.236473,-1.451384,-6.11935
30.672,-2.353596,-0.196133,-4.04034
30.743,-2.235916,0.039227,-3.216581
30.814,-2.353596,-0.23536,-4.236473
30.885,-3.138128,-2.471276,-7.727641
30.956,-2.941995,1.294478,-9.767424
31.027,-4.628739,-2.902768,-14.20003
31.098,-3.569621,-4.197247,0.313813
31.169,-5.138685,-5.88399,-9.100572
31.24,-2.902768,-2.353596,-2.824315
31.311,-4.001113,-1.019892,-3.020448
31.382,-3.334261,-0.078453,-4.942552
31.453,-3.255808,-0.353039,-6.00167
31.524,-6.550843,1.882877,-8.943666
31.595,-8.747532,-4.079566,-5.138685
